time_stamp,height_baro_1,height_baro_2,temperature_baro_1,temperature_baro_2,acceleration_x_imu_1,acceleration_y_imu_1,acceleration_z_imu_1,acceleration_x_imu_2,acceleration_y_imu_2,acceleration_z_imu_2,gyro_x_imu_1,gyro_y_imu_1,gyro_z_imu_1,gyro_x_imu_2,gyro_y_imu_2,gyro_z_imu_2,recovery_pressure_a,recovery_pressure_b
0.0,5.870037516929301,3.4360317580382542,32.248863220214844,32.35953903198242,-9.421912087912089,-0.9414725274725276,2.184791208791209,-9.67345054945055,-0.6396263736263736,0.34496703296703296,-0.1983642578125,0.7171630859375,0.18310546875,-0.46539306640625,-0.00762939453125,0.7781982421875,-28561,-28818
0.080026,5.484784842931816,3.446530424381109,32.25340270996094,32.364097595214844,-9.666263736263737,-0.9702197802197802,-3.44967032967033,-9.759692307692308,-0.4527692307692308,-1.3654945054945056,-0.23651123046875,-0.84686279296875,-1.6937255859375,-0.26702880859375,-0.14495849609375,0.20599365234375,-28551,-28768
0.29703,5.736149108742197,3.9622904615514187,32.255672454833984,32.37321090698242,-9.910615384615385,-0.36652747252747253,-0.6324395604395605,-9.594395604395604,-0.7330549450549451,-0.2371648351648352,0.7781982421875,-0.25177001953125,0.14495849609375,0.091552734375,0.48828125,0.49591064453125,-28551,-28732
0.337043,5.736149108742197,3.322515605206803,32.255672454833984,32.375492095947266,-9.421912087912089,-0.9414725274725276,-0.20123076923076924,-9.802813186813188,-0.5174505494505495,1.113956043956044,-0.2593994140625,0.9765625,0.1373291015625,-1.2664794921875,0.67138671875,-0.1373291015625,-28587,-28749
0.377056,5.493972985843087,3.5856387543039716,32.25794219970703,32.382328033447266,-9.393164835164836,-0.883978021978022,1.300813186813187,-9.65189010989011,-0.7977362637362638,0.20841758241758243,0.54168701171875,0.52642822265625,0.98419189453125,-0.1678466796875,0.8544921875,-0.0152587890625,-28568,-28856
0.417069,5.601606121777877,3.277896878677666,32.262481689453125,32.377769470214844,-10.154967032967035,-0.7761758241758242,-3.9168131868131875,-9.65189010989011,-0.4743296703296704,-1.839824175824176,0.87738037109375,-0.4119873046875,0.2288818359375,0.0152587890625,-0.67138671875,-0.5645751953125,-28568,-28845
0.457082,6.031493478989503,3.5206775572728475,32.255672454833984,32.375492095947266,-9.975296703296703,-0.8121098901098901,-4.470197802197802,-9.766879120879121,-0.30903296703296707,-2.227912087912088,0.57220458984375,-0.48828125,-0.31280517578125,0.6103515625,0.48065185546875,1.52587890625,-28527,-28708
0.497095,5.583885955701177,3.5652973257283236,32.25340270996094,32.37321090698242,-9.730945054945055,-0.7330549450549451,-0.7833626373626373,-9.730945054945055,-0.2946593406593407,-0.6971208791208792,0.1983642578125,-0.6103515625,-0.23651123046875,-0.55694580078125,0.31280517578125,-0.4425048828125,-28545,-28782
0.537108,5.556977613113304,3.243120651074733,32.26475143432617,32.38460922241211,-9.623142857142858,-0.5821318681318681,-0.5821318681318681,-9.65189010989011,-0.7546153846153847,-1.1570769230769231,0.41961669921875,0.60272216796875,0.579833984375,-0.7476806640625,1.007080078125,-0.91552734375,-28524,-28796
0.57712,5.458533050795424,3.243120651074733,32.26475143432617,32.38460922241211,-9.752505494505495,-0.6683736263736263,-1.078021978021978,-9.716571428571429,-0.5677582417582419,-0.4815164835164835,-0.42724609375,0.0152587890625,-0.67901611328125,-0.1983642578125,0.22125244140625,-0.63323974609375,-28598,-28831
0.617133,5.592417883746464,3.684721765797903,32.25794219970703,32.382328033447266,-9.766879120879121,-0.7186813186813188,-0.8696043956043957,-9.730945054945055,-0.5461978021978022,-0.6827472527472528,-0.00762939453125,-1.48773193359375,0.16021728515625,-0.72479248046875,0.72479248046875,0.2288818359375,-28544,-28770
0.777182,5.74468116174738,3.531176309094377,32.26021194458008,32.38005065917969,-10.061538461538461,-0.804923076923077,-4.427076923076924,-9.644703296703296,-0.7546153846153847,0.3018461538461539,-0.11444091796875,1.190185546875,0.54168701171875,-0.17547607421875,0.43487548828125,0.55694580078125,-28540,-28844
0.839616,5.700052038894341,3.739841200816798,32.262481689453125,32.38460922241211,-9.479406593406594,-0.9342857142857143,0.8624175824175825,-9.917802197802198,-0.31621978021978026,-1.9620000000000002,0.23651123046875,-2.38037109375,-0.14495849609375,0.213623046875,0.26702880859375,-0.6866455078125,-28588,-28788
1.199731,5.512349296017817,4.0718763605325705,32.26702117919922,32.377769470214844,-9.982483516483516,-0.6180659340659341,-4.39832967032967,-9.752505494505495,-0.4024615384615385,-2.7597362637362637,0.7476806640625,0.02288818359375,0.02288818359375,0.3204345703125,-1.1138916015625,-0.98419189453125,-28568,-28815
1.239744,5.80768730840002,3.595481395327141,32.26702117919922,32.38688659667969,-9.544087912087912,-0.7474285714285716,2.4435164835164835,-9.874681318681318,-0.20123076923076924,-1.2864395604395606,0.6561279296875,-0.030517578125,-0.1678466796875,0.19073486328125,1.8768310546875,0.54168701171875,-28578,-28773
1.279757,5.556977613113304,3.2877392283606923,32.26475143432617,32.382328033447266,-9.774065934065934,-0.6468131868131869,1.3870549450549452,-9.752505494505495,-0.5030769230769231,-2.306967032967033,0.35858154296875,-0.152587890625,0.28228759765625,-0.34332275390625,-0.0457763671875,-0.213623046875,-28551,-28786
1.319768,5.458533050795424,3.6302588015543904,32.26475143432617,32.38005065917969,-9.529714285714286,-0.8696043956043957,-2.45789010989011,-9.874681318681318,-0.46714285714285714,-2.881912087912088,-1.09100341796875,-0.75531005859375,-0.4119873046875,-0.54168701171875,0.823974609375,-0.99945068359375,-28555,-28799
1.359781,5.476909298332714,3.4760579803126177,32.27383041381836,32.377769470214844,-9.443472527472528,-0.9342857142857143,-0.9270989010989011,-9.788439560439562,-0.48870329670329676,-0.2802857142857143,0.03814697265625,-0.30517578125,0.12969970703125,0.20599365234375,-0.26702880859375,-0.9918212890625,-28579,-28737
1.441585,5.2616467226676775,4.027254417942203,32.26475143432617,32.38005065917969,-10.16934065934066,-0.6827472527472528,-3.737142857142857,-9.946549450549451,-0.6468131868131869,-2.29978021978022,-0.9307861328125,-0.6103515625,0.335693359375,0.457763671875,-0.6103515625,0.030517578125,-28544,-28762
1.761681,5.690863713853631,3.7096567121126327,32.25794219970703,32.370933532714844,-9.457846153846155,-0.6324395604395605,2.565692307692308,-9.69501098901099,-0.6180659340659341,-1.2936263736263738,-0.18310546875,1.70135498046875,-0.9918212890625,-0.08392333984375,-0.03814697265625,-0.06866455078125,-28557,-28784
1.881717,5.556977613113304,3.84351902512455,32.26475143432617,32.364097595214844,-9.752505494505495,-0.5677582417582419,1.4804835164835164,-9.781252747252747,-0.3377802197802198,-1.9332527472527472,0.1983642578125,-0.1220703125,1.190185546875,0.54168701171875,0.0152587890625,0.32806396484375,-28561,-28769
1.921729,5.601606121777877,3.5206775572728475,32.262481689453125,32.375492095947266,-10.075912087912087,-0.5461978021978022,-0.39527472527472535,-9.889054945054946,-0.5102637362637363,-2.6663076923076923,1.12152099609375,0.81634521484375,0.02288818359375,1.30462646484375,0.51116943359375,-0.14495849609375,-28557,-28810
2.053096,5.458533050795424,3.5206775572728475,32.26475143432617,32.375492095947266,-9.845934065934067,-0.42402197802197805,-0.25153846153846154,-9.63032967032967,-0.6755604395604397,0.04312087912087912,-0.31280517578125,0.60272216796875,-0.3662109375,0.60272216796875,1.54876708984375,0.91552734375,-28595,-28774
2.093109,5.798498888229361,3.7096567121126327,32.262481689453125,32.370933532714844,-9.730945054945055,-0.7977362637362638,-0.8264835164835166,-9.73813186813187,-0.5533846153846155,-0.7618021978021978,0.1983642578125,0.152587890625,0.244140625,-0.030517578125,-0.29754638671875,-0.1373291015625,-28553,-28823
2.133121,5.80768730840002,3.1683193481560608,32.26702117919922,32.37321090698242,-9.702197802197803,-0.6683736263736263,-0.7330549450549451,-9.759692307692308,-0.5533846153846155,-0.7977362637362638,-0.66375732421875,-0.06866455078125,-0.6103515625,0.0457763671875,0.52642822265625,-0.1678466796875,-28538,-28777
2.173134,5.950765184531036,4.0174113681539865,32.26475143432617,32.375492095947266,-9.680637362637363,-0.6180659340659341,-0.9270989010989011,-9.723758241758242,-0.5246373626373626,-1.2433186813186814,0.48065185546875,-0.00762939453125,1.18255615234375,0.7171630859375,-0.60272216796875,-0.1678466796875,-28562,-28778
2.373197,5.718428713337744,3.7844619098625145,32.27156066894531,32.382328033447266,-9.745318681318683,-0.7833626373626373,-1.0492747252747252,-9.723758241758242,-0.2946593406593407,-0.4024615384615385,-0.1678466796875,0.72479248046875,0.457763671875,-0.701904296875,0.152587890625,-0.4119873046875,-28555,-28725
2.41321,5.127109876224864,3.7844619098625145,32.27156066894531,32.382328033447266,-9.774065934065934,-0.6252527472527473,-0.9127252747252748,-9.716571428571429,-0.30903296703296707,-1.0061538461538462,-0.762939453125,0.06866455078125,1.0223388671875,0.16021728515625,-0.0457763671875,-0.25177001953125,-28527,-28766
2.573262,6.013772580162538,4.092218780263153,32.27156066894531,32.38688659667969,-9.745318681318683,-0.7977362637362638,-1.0061538461538462,-9.666263736263737,-0.3593406593406594,-1.0564615384615386,-0.5950927734375,-0.35858154296875,-1.068115234375,0.396728515625,0.84686279296875,0.77056884765625,-28575,-28726
2.653403,5.969142302141606,3.6604430597447077,32.27383041381836,32.39372634887695,-9.774065934065934,-0.7258681318681319,-0.9486593406593408,-9.759692307692308,-0.5605714285714286,-0.2874725274725275,0.23651123046875,0.3814697265625,0.457763671875,-0.46539306640625,-0.28228759765625,-0.03814697265625,-28579,-28768
2.693416,6.022961190598053,3.164382452384487,32.276100158691406,32.39372634887695,-9.680637362637363,-0.8192967032967032,-0.963032967032967,-9.680637362637363,-0.4958901098901099,-1.1283296703296704,0.41961669921875,-0.75531005859375,-0.28228759765625,-0.40435791015625,-0.5950927734375,-1.0223388671875,-28548,-28827
2.773441,5.629170884605955,3.01018854056872,32.276100158691406,32.39144515991211,-9.73813186813187,-0.8264835164835166,-0.883978021978022,-9.802813186813188,-0.539010989010989,-0.9774065934065935,0.732421875,0.05340576171875,0.2593994140625,0.31280517578125,0.31280517578125,1.06048583984375,-28575,-28761
2.813454,5.826064173103376,3.407160480254916,32.276100158691406,32.39144515991211,-9.781252747252747,-0.7474285714285716,-1.1283296703296704,-9.774065934065934,-0.42402197802197805,-0.5893186813186814,1.434326171875,-0.4425048828125,0.40435791015625,-0.1983642578125,-0.518798828125,-0.81634521484375,-28534,-28746
2.853467,5.826064173103376,3.317922492162566,32.276100158691406,32.39600372314453,-9.766879120879121,-0.7186813186813188,-0.7186813186813188,-9.716571428571429,-0.5318241758241758,-1.264879120879121,-0.48828125,-0.335693359375,-0.09918212890625,0.0152587890625,-0.518798828125,-0.86212158203125,-28572,-28810
2.933493,5.870693836901367,3.595481395327141,32.27383041381836,32.38688659667969,-9.81,-0.7905494505494507,-0.9558461538461539,-9.709384615384616,-0.459956043956044,-0.3377802197802198,-0.0762939453125,-0.0152587890625,-0.30517578125,0.14495849609375,-0.701904296875,0.64849853515625,-28568,-28734
2.973505,6.076780357662429,3.407160480254916,32.27836990356445,32.39144515991211,-9.65189010989011,-0.6252527472527473,-0.7618021978021978,-9.759692307692308,-0.4815164835164835,-0.9414725274725276,-0.70953369140625,0.030517578125,-0.29754638671875,-1.3580322265625,-0.06103515625,-0.29754638671875,-28543,-28777
3.013517,5.870693836901367,3.6604430597447077,32.27383041381836,32.39372634887695,-9.795626373626375,-0.804923076923077,-1.113956043956044,-9.702197802197803,-0.5318241758241758,-1.1858241758241759,0.09918212890625,0.701904296875,-0.19073486328125,0.30517578125,-0.78582763671875,-0.12969970703125,-28544,-28822
3.472808,5.333181657299079,3.650600357230843,32.276100158691406,32.38916778564453,-9.730945054945055,-0.7618021978021978,-0.8767912087912089,-9.781252747252747,-0.6755604395604397,-1.14989010989011,-0.40435791015625,-0.20599365234375,0.08392333984375,0.46539306640625,-0.335693359375,-0.03814697265625,-28565,-28745
3.552795,5.6199826222076155,4.191306619712421,32.27156066894531,32.38688659667969,-9.65189010989011,-0.6252527472527473,-0.8696043956043957,-9.752505494505495,-0.4527692307692308,-0.7977362637362638,0.38909912109375,-0.26702880859375,1.7547607421875,-0.26702880859375,-0.8697509765625,0.3204345703125,-28555,-28839
3.712846,5.575354034654424,3.595481395327141,32.27383041381836,32.38688659667969,-9.745318681318683,-0.8480439560439561,-1.0852087912087913,-9.795626373626375,-0.7114945054945055,-1.308,0.7476806640625,0.80108642578125,0.6256103515625,-0.19073486328125,0.37384033203125,0.9002685546875,-28554,-28845
3.752859,5.889070812980947,3.6604430597447077,32.28290939331055,32.39372634887695,-9.845934065934067,-0.6611868131868132,-1.0061538461538462,-9.752505494505495,-0.6755604395604397,-1.113956043956044,0.0152587890625,0.11444091796875,-0.08392333984375,0.701904296875,0.2899169921875,0.37384033203125,-28536,-28708
3.840772,5.772246303923993,3.714906182114902,32.27383041381836,32.39600372314453,-9.766879120879121,-0.6468131868131869,-0.998967032967033,-9.845934065934067,-0.6827472527472528,-1.5236043956043956,0.26702880859375,-1.52587890625,-0.64849853515625,-0.57220458984375,0.41961669921875,0.02288818359375,-28547,-28743
3.920795,5.9875194522397805,3.8041475776751525,32.28290939331055,32.39144515991211,-10.01123076923077,-0.5605714285714286,-1.5954725274725277,-9.730945054945055,-0.19404395604395605,-1.1786373626373627,-0.64849853515625,-0.9918212890625,-0.40435791015625,0.762939453125,0.58746337890625,0.54168701171875,-28555,-28730
3.960807,5.351557683270016,3.139448813778287,32.285179138183594,32.405120849609375,-9.414725274725276,-0.7977362637362638,0.43120879120879124,-9.752505494505495,-0.5318241758241758,0.6683736263736263,-0.1220703125,-0.75531005859375,-0.701904296875,-0.18310546875,0.25177001953125,0.2288818359375,-28576,-28839
4.240891,5.522193761263551,3.8441752171788295,32.29652786254883,32.4096794128418,-9.745318681318683,-0.7618021978021978,-1.0061538461538462,-9.759692307692308,-0.5246373626373626,-0.574945054945055,0.30517578125,-0.05340576171875,0.40435791015625,0.28228759765625,-0.640869140625,-0.4425048828125,-28591,-28824
4.280903,5.862161680483126,4.2070557672631566,32.29425811767578,32.4165153503418,-9.745318681318683,-0.7114945054945055,-0.8696043956043957,-9.83156043956044,-0.4958901098901099,-1.1858241758241759,0.43487548828125,0.11444091796875,-0.32806396484375,-0.34332275390625,0.48065185546875,0.37384033203125,-28546,-28846
4.320915,5.683644321305906,3.7208118390332885,32.30333709716797,32.42107391357422,-9.65189010989011,-0.7186813186813188,-1.0492747252747252,-9.65189010989011,-0.32340659340659345,-1.0564615384615386,0.02288818359375,-0.4119873046875,0.0152587890625,-1.13677978515625,0.6866455078125,-0.3204345703125,-28557,-28748
4.360928,5.4775655934850676,3.2240921984175372,32.298797607421875,32.42107391357422,-9.795626373626375,-0.6324395604395605,-0.7618021978021978,-9.92498901098901,-0.4958901098901099,-0.804923076923077,0.1068115234375,-0.2593994140625,0.18310546875,-0.23651123046875,-0.05340576171875,0.06103515625,-28522,-28833
4.43917,5.782091015270339,3.586951105905257,32.30333709716797,32.427913665771484,-10.025604395604395,-0.5677582417582419,-2.45789010989011,-9.838747252747254,-0.31621978021978026,-2.7956703296703296,0.8544921875,-0.030517578125,-0.4425048828125,0.8392333984375,0.16021728515625,0.0,-28598,-28807
4.519196,5.782091015270339,4.192619047761198,32.30333709716797,32.432472229003906,-9.465032967032968,-0.7905494505494507,2.2710329670329674,-9.716571428571429,-0.5893186813186814,1.106769230769231,1.007080078125,0.030517578125,-0.091552734375,-1.190185546875,0.23651123046875,-0.12969970703125,-28569,-28821
4.559209,5.6383591551200425,4.028566825285722,32.305606842041016,32.42563247680664,-9.982483516483516,-0.8480439560439561,-4.233032967032967,-9.881868131868131,-0.39527472527472535,-1.5379780219780221,-0.43487548828125,-1.35040283203125,0.3814697265625,-0.06103515625,-0.51116943359375,0.030517578125,-28540,-28791
4.599222,5.441469421453647,3.7063757947085065,32.305606842041016,32.43703079223633,-9.781252747252747,-0.9774065934065935,-3.5646593406593405,-9.73813186813187,-0.654,-0.08624175824175824,0.1373291015625,0.1220703125,-0.38909912109375,-0.38909912109375,0.74005126953125,1.25885009765625,-28551,-28784
4.639235,6.032806139363302,3.3192348099670994,32.305606842041016,32.44158935546875,-9.83156043956044,-0.4815164835164835,0.2730989010989011,-9.544087912087912,-0.5461978021978022,0.39527472527472535,1.495361328125,-1.46484375,-0.03814697265625,0.58746337890625,1.12152099609375,-0.3662109375,-28551,-28831
4.679248,5.701364657419603,3.5967937481637478,32.31241607666016,32.432472229003906,-10.054351648351648,-0.7114945054945055,-1.8829450549450553,-9.766879120879121,-0.5677582417582419,-1.3654945054945056,-0.4730224609375,-0.6103515625,0.1373291015625,0.9613037109375,0.60272216796875,-0.396728515625,-28540,-28811
4.719261,6.032806139363302,3.9045450633168457,32.305606842041016,32.43703079223633,-9.285362637362638,-0.804923076923077,0.8480439560439561,-9.594395604395604,-0.6611868131868132,0.9270989010989011,-0.48065185546875,-0.57220458984375,-0.49591064453125,0.08392333984375,0.22125244140625,-0.396728515625,-28525,-28768
4.8393,5.701364657419603,3.9695086588840667,32.31241607666016,32.44386672973633,-9.752505494505495,-0.8121098901098901,-3.6652747252747253,-9.60876923076923,-0.6324395604395605,0.3018461538461539,-0.14495849609375,-0.60272216796875,0.99945068359375,0.3814697265625,0.2288818359375,-0.396728515625,-28548,-28784
4.879313,5.907447821538284,3.9695086588840667,32.31695556640625,32.44386672973633,-9.716571428571429,-1.0205274725274727,-2.5944395604395605,-9.680637362637363,-0.6899340659340659,-2.199164835164835,0.457763671875,-0.701904296875,0.54168701171875,0.5645751953125,-0.28228759765625,0.03814697265625,-28557,-28863
4.919326,6.041994766620917,3.9695086588840667,32.31014633178711,32.44386672973633,-10.03997802197802,-0.6108791208791209,-0.6899340659340659,-9.917802197802198,-0.30903296703296707,-2.845978021978022,-0.86212158203125,0.26702880859375,-0.335693359375,0.66375732421875,-0.17547607421875,-0.51116943359375,-28587,-28753
4.959338,6.050527070628661,3.572515247440478,32.3146858215332,32.44386672973633,-10.198087912087914,-0.6180659340659341,-2.5585054945054946,-9.745318681318683,-0.4527692307692308,-0.5821318681318681,-0.45013427734375,-1.22833251953125,0.72479248046875,0.5340576171875,-0.1220703125,0.152587890625,-28548,-28763
5.097107,5.943545611497697,3.924887155651504,32.31014633178711,32.44614791870117,-9.429098901098902,-1.106769230769231,-0.0574945054945055,-9.723758241758242,-0.6827472527472528,-1.573912087912088,0.6103515625,1.3885498046875,-0.48828125,0.30517578125,-0.579833984375,0.8392333984375,-28542,-28810
5.297169,5.262959285844417,3.2844584440962024,32.3146858215332,32.44842529296875,-9.774065934065934,-0.7546153846153847,-0.9127252747252748,-9.745318681318683,-0.5030769230769231,-0.6971208791208792,0.49591064453125,0.12969970703125,-0.96893310546875,0.60272216796875,0.74005126953125,0.02288818359375,-28553,-28731
5.417207,5.370590030123523,4.277271007056129,32.3192253112793,32.44842529296875,-9.766879120879121,-0.6396263736263736,-0.9845934065934067,-9.81,-0.7761758241758242,-1.3583076923076924,1.1138916015625,-0.06103515625,-0.0457763671875,0.05340576171875,0.54931640625,-0.08392333984375,-28539,-28727
5.45722,5.478221888681716,3.979351663319548,32.32376480102539,32.44842529296875,-9.781252747252747,-0.7114945054945055,-0.8696043956043957,-9.666263736263737,-0.4815164835164835,-0.5821318681318681,0.3204345703125,-0.3509521484375,-0.2593994140625,-1.07574462890625,-0.762939453125,-0.3509521484375,-28512,-28855
5.760319,5.881194962114435,3.161101707045077,32.328304290771484,32.45981979370117,-9.709384615384616,-0.5318241758241758,-0.8552307692307692,-9.637516483516483,-0.5677582417582419,-1.1642637362637362,-0.12969970703125,0.0152587890625,-0.1373291015625,-1.1444091796875,-0.05340576171875,-0.45013427734375,-28536,-28780
5.800332,5.7735589315640965,3.537738034367081,32.32376480102539,32.45070266723633,-9.759692307692308,-0.5893186813186814,-0.9127252747252748,-9.702197802197803,-0.459956043956044,-0.4958901098901099,-0.49591064453125,-0.46539306640625,-0.2593994140625,0.518798828125,-0.4730224609375,-0.48828125,-28570,-28765
5.840345,5.5674784214430275,3.9452292877823822,32.3192253112793,32.45526123046875,-9.723758241758242,-0.5965054945054945,-0.8983516483516484,-9.867494505494506,-0.6899340659340659,-0.6036923076923078,-0.335693359375,0.02288818359375,0.81634521484375,0.213623046875,0.30517578125,-0.6256103515625,-28535,-28819
5.880357,5.719741334181094,3.6368205893562617,32.321495056152344,32.45070266723633,-9.730945054945055,-0.6971208791208792,-1.0923956043956045,-9.766879120879121,-0.6036923076923078,-1.1642637362637362,-0.91552734375,-0.19073486328125,0.19073486328125,-0.3662109375,0.3204345703125,0.57220458984375,-28570,-28784
5.960383,5.52285005927537,3.7464030577870915,32.321495056152344,32.45526123046875,-9.421912087912089,-0.8911648351648351,-0.9486593406593408,-9.65189010989011,-0.5821318681318681,1.0492747252747252,0.67138671875,0.22125244140625,0.32806396484375,0.30517578125,0.18310546875,0.12969970703125,-28560,-28805
6.000396,5.576666637435437,4.143403109212812,32.32376480102539,32.45526123046875,-10.075912087912087,-0.5821318681318681,-1.9835604395604396,-9.69501098901099,-0.6396263736263736,-0.14373626373626375,-0.1220703125,0.48065185546875,-0.22125244140625,0.03814697265625,0.22125244140625,-0.46539306640625,-28572,-28803
6.040407,5.9704549546457315,3.84548760141044,32.32376480102539,32.45526123046875,-10.119032967032968,-0.6755604395604397,-3.7874505494505497,-9.788439560439562,-0.2730989010989011,-2.6806813186813185,0.2899169921875,-0.274658203125,0.14495849609375,-0.823974609375,-0.32806396484375,0.030517578125,-28546,-28791
6.080419,5.91663633800043,3.84548760141044,32.321495056152344,32.45526123046875,-9.400351648351648,-0.6755604395604397,2.0985494505494504,-9.817186813186813,-0.5461978021978022,-1.990747252747253,-0.37384033203125,0.90789794921875,0.9613037109375,0.579833984375,0.11444091796875,0.55694580078125,-28567,-28784
6.160444,5.576666637435437,3.8356447237066362,32.32376480102539,32.45070266723633,-9.85312087912088,-0.8408571428571429,-3.8665054945054944,-10.004043956043956,-0.3018461538461539,-2.4075824175824176,-1.18255615234375,-0.0762939453125,0.8544921875,0.3509521484375,0.2288818359375,-0.1983642578125,-28549,-28809
6.241578,6.015085238301907,3.537738034367081,32.321495056152344,32.45070266723633,-9.69501098901099,-0.7618021978021978,-1.0061538461538462,-9.73813186813187,-0.6971208791208792,-0.9486593406593408,-0.0152587890625,0.7171630859375,0.0762939453125,0.06103515625,0.20599365234375,0.05340576171875,-28564,-28829
6.441638,5.52285005927537,3.2746160975187166,32.321495056152344,32.44386672973633,-9.845934065934067,-0.5533846153846155,1.0708351648351648,-9.867494505494506,-0.39527472527472535,-2.2422857142857144,0.48828125,-0.42724609375,0.09918212890625,-0.52642822265625,0.49591064453125,-0.52642822265625,-28541,-28747
6.521662,5.907447821538284,3.7811809688543008,32.31695556640625,32.44842529296875,-9.321296703296703,-0.8408571428571429,0.12936263736263737,-9.781252747252747,-0.5677582417582419,-2.508197802197802,-0.40435791015625,-0.34332275390625,0.42724609375,0.091552734375,-0.02288818359375,0.52642822265625,-28550,-28795
6.561674,6.104346380400273,3.7162185500264258,32.31695556640625,32.44158935546875,-9.357230769230771,-0.7330549450549451,1.9045054945054947,-9.881868131868131,-0.459956043956044,-1.422989010989011,-1.0223388671875,0.66375732421875,0.5950927734375,-0.1068115234375,-0.6866455078125,0.6561279296875,-28525,-28833
6.601686,5.558290213571311,3.726061314665884,32.3146858215332,32.44614791870117,-9.889054945054946,-0.6324395604395605,-4.26178021978022,-9.867494505494506,-0.5893186813186814,-0.02874725274725275,-0.35858154296875,0.58746337890625,-0.1373291015625,-0.89263916015625,0.091552734375,-0.25177001953125,-28590,-28807
6.641698,5.665924015391255,3.6171352383678936,32.3192253112793,32.44158935546875,-9.83156043956044,-0.8911648351648351,-4.225846153846154,-9.730945054945055,-0.7618021978021978,0.44558241758241757,-0.274658203125,1.24359130859375,0.1983642578125,0.2288818359375,-0.5645751953125,0.152587890625,-28567,-28821
6.681711,5.907447821538284,3.924887155651504,32.31695556640625,32.44614791870117,-9.788439560439562,-0.5461978021978022,1.4804835164835164,-9.824373626373626,-0.43120879120879124,-0.4815164835164835,0.51116943359375,-0.46539306640625,0.69427490234375,0.0152587890625,-0.5340576171875,-0.14495849609375,-28533,-28800
6.841213,5.262959285844417,3.661755420785653,32.3146858215332,32.439308166503906,-9.723758241758242,-0.6468131868131869,-0.9414725274725276,-9.774065934065934,-0.6396263736263736,-0.48870329670329676,-1.190185546875,-0.05340576171875,-0.2593994140625,-0.732421875,-1.77001953125,-0.63323974609375,-28596,-28782
6.881224,5.880538641477941,3.6066363997437776,32.30333709716797,32.43703079223633,-9.67345054945055,-0.8552307692307692,-0.9702197802197802,-9.85312087912088,-0.4743296703296704,-0.8480439560439561,0.1373291015625,0.20599365234375,1.57928466796875,0.22125244140625,0.25177001953125,-0.6866455078125,-28543,-28708
6.921236,5.647547433754795,3.3638537139008804,32.31014633178711,32.439308166503906,-9.67345054945055,-0.6324395604395605,-1.0636483516483517,-9.65189010989011,-0.5030769230769231,-1.106769230769231,0.26702880859375,-0.6256103515625,-0.22125244140625,0.3662109375,-0.4425048828125,0.457763671875,-28566,-28777
6.961248,5.647547433754795,3.354011292160436,32.31014633178711,32.434749603271484,-10.097472527472528,-0.574945054945055,-3.2484395604395604,-9.716571428571429,-0.43120879120879124,-2.342901098901099,0.5340576171875,-0.4119873046875,0.51116943359375,0.1678466796875,-0.8392333984375,0.030517578125,-28566,-28753
7.00126,5.862817999958125,3.497711574629534,32.3192253112793,32.432472229003906,-9.465032967032968,-0.8624175824175825,1.688901098901099,-9.889054945054946,-0.35215384615384615,-1.4876703296703295,-0.67901611328125,0.0152587890625,0.14495849609375,0.3814697265625,0.640869140625,0.22125244140625,-28567,-28775
7.081284,5.82672049029965,3.552173844540917,32.30106735229492,32.434749603271484,-9.903428571428572,-0.7546153846153847,-4.312087912087912,-9.903428571428572,-0.4024615384615385,-2.6806813186813185,-0.46539306640625,-0.89263916015625,-0.3509521484375,-0.08392333984375,-0.99945068359375,-0.457763671875,-28544,-28810
7.161308,5.853629531063433,3.671598133866226,32.3146858215332,32.44386672973633,-9.903428571428572,-0.46714285714285714,0.43839560439560443,-9.65189010989011,-0.7043076923076923,0.8480439560439561,-0.34332275390625,-0.70953369140625,-0.70953369140625,0.31280517578125,-0.48828125,-0.23651123046875,-28571,-28779
7.241332,5.647547433754795,4.147996586953909,32.31014633178711,32.434749603271484,-9.723758241758242,-0.7258681318681319,-0.9486593406593408,-9.702197802197803,-0.5246373626373626,-0.9486593406593408,-0.51116943359375,-0.64849853515625,0.03814697265625,-0.06866455078125,0.54931640625,-0.0762939453125,-28572,-28761
7.281344,5.98817577963365,4.103374317661576,32.30787658691406,32.43703079223633,-9.67345054945055,-0.7905494505494507,-0.963032967032967,-9.83156043956044,-0.459956043956044,-0.3809010989010989,-0.9307861328125,0.0457763671875,-0.31280517578125,-0.31280517578125,0.9765625,-0.22125244140625,-28579,-28789
7.361369,5.889727134153901,3.93932350338423,32.30787658691406,32.43019104003906,-9.69501098901099,-0.9342857142857143,-1.0133406593406593,-9.730945054945055,-0.5821318681318681,-1.3439340659340662,-0.9918212890625,0.2593994140625,-0.091552734375,0.2593994140625,-0.45013427734375,0.244140625,-28526,-28789
7.452995,5.396841600196481,3.5967937481637478,32.30787658691406,32.432472229003906,-9.730945054945055,-0.6324395604395605,-0.9270989010989011,-9.795626373626375,-0.539010989010989,-0.963032967032967,-0.1068115234375,-0.55694580078125,-0.091552734375,0.2899169921875,-0.63323974609375,0.86212158203125,-28580,-28766
7.493007,6.032806139363302,3.6512565371090346,32.305606842041016,32.434749603271484,-9.745318681318683,-0.6180659340659341,-0.7618021978021978,-9.730945054945055,-0.6036923076923078,-1.3583076923076924,0.14495849609375,-0.20599365234375,-1.12152099609375,0.75531005859375,0.05340576171875,-1.41143798828125,-28517,-28814
7.53302,5.647547433754795,3.5967937481637478,32.31014633178711,32.432472229003906,-9.716571428571429,-0.6899340659340659,-0.9917802197802198,-9.702197802197803,-0.6252527472527473,-0.4527692307692308,-0.1068115234375,-0.49591064453125,-0.31280517578125,-0.152587890625,-0.90789794921875,-0.16021728515625,-28574,-28798
7.613046,6.185075867455538,3.9294805368452046,32.30787658691406,32.42563247680664,-9.709384615384616,-0.8264835164835166,-1.0923956043956045,-9.85312087912088,-0.7402417582417582,-1.3726813186813187,0.4119873046875,0.48828125,0.12969970703125,-0.640869140625,0.30517578125,0.0457763671875,-28566,-28722
7.653059,5.683644321305906,3.7956171170498436,32.30333709716797,32.432472229003906,-9.716571428571429,-0.7546153846153847,-1.0923956043956045,-9.774065934065934,-0.5533846153846155,-1.1211428571428572,-0.244140625,-0.55694580078125,0.274658203125,-0.77056884765625,0.77056884765625,0.0152587890625,-28544,-28823
7.693072,5.790623105975129,3.840238065473244,32.30787658691406,32.43019104003906,-9.802813186813188,-0.8696043956043957,-1.1283296703296704,-9.644703296703296,-0.36652747252747253,-0.5318241758241758,0.213623046875,-0.06866455078125,-0.640869140625,-0.87738037109375,0.20599365234375,-0.701904296875,-28522,-28750
7.773098,5.6921763312173965,3.4432495900096143,32.30787658691406,32.43019104003906,-9.824373626373626,-0.8264835164835166,-1.0061538461538462,-9.745318681318683,-0.5174505494505495,-1.1570769230769231,-0.02288818359375,-2.00653076171875,0.30517578125,0.61798095703125,-0.1068115234375,-0.3204345703125,-28554,-28791
7.813111,5.880538641477941,3.4327509269790113,32.30333709716797,32.42563247680664,-9.687824175824177,-0.6827472527472528,-1.0636483516483517,-9.615956043956045,-0.44558241758241757,-1.2217582417582418,-0.29754638671875,0.1373291015625,1.7852783203125,-0.54931640625,-0.08392333984375,0.54168701171875,-28537,-28696
7.893137,5.602918727876045,3.1696316470812604,32.31241607666016,32.41879653930664,-9.716571428571429,-0.5533846153846155,-0.7977362637362638,-9.759692307692308,-0.48870329670329676,-0.6108791208791209,-0.091552734375,1.190185546875,-0.16021728515625,0.1983642578125,-0.8087158203125,-0.89263916015625,-28571,-28848
7.933149,5.683644321305906,3.6210723055840504,32.30333709716797,32.42107391357422,-9.752505494505495,-0.7258681318681319,-1.0492747252747252,-9.702197802197803,-0.44558241758241757,-1.1427032967032968,0.23651123046875,-0.31280517578125,-0.1373291015625,0.396728515625,0.0,-0.274658203125,-28516,-28801
8.098938,5.82672049029965,3.864517191389723,32.30106735229492,32.41879653930664,-10.025604395604395,-0.5965054945054945,-4.2114725274725275,-9.85312087912088,-0.13654945054945056,-2.0913626373626375,-0.0762939453125,-0.89263916015625,-0.37384033203125,-0.1678466796875,-0.79345703125,-0.23651123046875,-28540,-28799
8.138951,5.101515258645492,3.974102059793765,32.30787658691406,32.42335510253906,-9.508153846153846,-0.7258681318681319,2.364461538461539,-9.716571428571429,-0.4024615384615385,-2.580065934065934,0.99945068359375,-0.02288818359375,0.0,0.58746337890625,0.08392333984375,0.57220458984375,-28547,-28752
8.178964,6.31897005732894,4.0731887735064305,32.30106735229492,32.42335510253906,-9.69501098901099,-0.804923076923077,2.0410549450549453,-9.81,-0.13654945054945056,-1.7176483516483516,0.335693359375,-0.00762939453125,-0.80108642578125,0.4119873046875,0.0152587890625,-0.35858154296875,-28572,-28823
8.218977,5.728273373720739,3.5324886538152214,32.30106735229492,32.42563247680664,-9.709384615384616,-0.8911648351648351,-3.535912087912088,-9.838747252747254,-0.654,-0.07905494505494506,0.6256103515625,0.54168701171875,0.25177001953125,0.12969970703125,-0.885009765625,-0.28228759765625,-28551,-28825
8.25899,5.835908935413087,3.7654324664096634,32.305606842041016,32.41879653930664,-9.558461538461538,-0.9414725274725276,-1.9404395604395603,-9.601582417582417,-0.6611868131868132,0.5461978021978022,0.89263916015625,1.1749267578125,0.0762939453125,0.03814697265625,-0.3204345703125,0.7781982421875,-28579,-28831
8.299003,5.441469421453647,3.9189813828093207,32.305606842041016,32.42107391357422,-10.097472527472528,-0.6755604395604397,-1.1427032967032968,-9.845934065934067,-0.43120879120879124,-0.8121098901098901,-0.4425048828125,0.396728515625,0.34332275390625,-0.35858154296875,-0.55694580078125,-0.26702880859375,-28534,-28734
8.339016,5.6921763312173965,3.2890515423558924,32.30787658691406,32.427913665771484,-10.054351648351648,-0.43839560439560443,-2.7525494505494508,-9.781252747252747,-0.7618021978021978,1.2936263736263738,0.52642822265625,0.54931640625,-0.823974609375,0.40435791015625,0.3662109375,0.09918212890625,-28552,-28765
8.379029,6.2297070724731896,3.730654608023457,32.305606842041016,32.42563247680664,-9.263802197802198,-0.9702197802197802,1.4804835164835164,-9.680637362637363,-0.7546153846153847,-0.2874725274725275,-0.1373291015625,-0.762939453125,0.90789794921875,-0.42724609375,-0.152587890625,-0.70953369140625,-28509,-28826
8.419042,5.745993785907899,3.9839450685799704,32.31014633178711,32.427913665771484,-9.443472527472528,-0.8264835164835166,2.2422857142857144,-9.73813186813187,-0.7043076923076923,0.2371648351648352,0.5950927734375,0.77056884765625,0.30517578125,-0.7476806640625,0.63323974609375,0.06103515625,-28518,-28792
8.459055,5.701364657419603,3.840238065473244,32.31241607666016,32.43019104003906,-9.838747252747254,-0.8480439560439561,-4.326461538461539,-9.637516483516483,-0.7474285714285716,0.32340659340659345,0.48065185546875,-0.09918212890625,-0.518798828125,-0.03814697265625,-0.18310546875,-0.9002685546875,-28541,-28794
8.499068,5.40602966538556,3.497711574629534,32.31241607666016,32.432472229003906,-9.83156043956044,-0.8767912087912089,-3.6940219780219783,-9.709384615384616,-0.3809010989010989,-1.2145714285714286,-0.274658203125,0.2288818359375,0.54168701171875,0.8697509765625,0.37384033203125,0.52642822265625,-28581,-28726
8.539081,6.095814032216083,3.8258018553194546,32.31241607666016,32.44614791870117,-9.83156043956044,-0.6108791208791209,0.9414725274725276,-9.817186813186813,-0.3377802197802198,-2.9825274725274724,0.335693359375,0.0,-0.2288818359375,0.274658203125,-1.15966796875,-0.60272216796875,-28581,-28812
8.579094,6.104346380400273,3.3192348099670994,32.31695556640625,32.44158935546875,-10.097472527472528,-0.6971208791208792,-1.0205274725274727,-9.644703296703296,-0.5605714285714286,-1.1283296703296704,-0.54168701171875,-0.79345703125,-0.22125244140625,0.23651123046875,0.69427490234375,0.43487548828125,-28543,-28871
8.640472,5.612106975189633,3.770681964573427,32.31695556640625,32.44386672973633,-9.774065934065934,-0.7905494505494507,-3.5502857142857143,-9.730945054945055,-0.6180659340659341,-0.02874725274725275,0.14495849609375,0.152587890625,0.42724609375,0.518798828125,-1.007080078125,-0.1678466796875,-28569,-28788
8.680485,5.119890875142687,3.661755420785653,32.31695556640625,32.439308166503906,-9.910615384615385,-0.6611868131868132,0.5821318681318681,-9.702197802197803,-0.6036923076923078,1.0492747252747252,-1.12152099609375,-0.69427490234375,-0.30517578125,0.1373291015625,0.274658203125,0.4119873046875,-28539,-28728
8.720498,5.576666637435437,4.023973400314233,32.32376480102539,32.44614791870117,-10.018417582417582,-0.5893186813186814,-1.3439340659340662,-9.867494505494506,-0.7186813186813188,-2.2782197802197803,0.23651123046875,0.335693359375,0.25177001953125,-1.16729736328125,0.45013427734375,-0.091552734375,-28572,-28761
8.76051,5.370590030123523,4.023973400314233,32.3192253112793,32.44614791870117,-9.81,-0.804923076923077,-1.0708351648351648,-9.774065934065934,-0.7043076923076923,-0.34496703296703296,0.19073486328125,0.762939453125,-1.0833740234375,0.518798828125,0.29754638671875,-0.1220703125,-28538,-28784
8.840533,5.81818836996672,3.33957575712968,32.321495056152344,32.45070266723633,-9.795626373626375,-0.8264835164835166,-1.0564615384615386,-9.83156043956044,-0.5965054945054945,-1.3151868131868132,0.37384033203125,0.26702880859375,1.28936767578125,0.20599365234375,-1.02996826171875,0.0762939453125,-28613,-28780
8.920557,6.015085238301907,3.7811809688543008,32.321495056152344,32.44842529296875,-9.730945054945055,-0.654,-1.042087912087912,-9.759692307692308,-0.6180659340659341,-1.1427032967032968,-0.0762939453125,0.274658203125,-0.49591064453125,-0.03814697265625,0.030517578125,0.274658203125,-28567,-28764
8.960569,5.72892968474531,3.671598133866226,32.32603454589844,32.44386672973633,-9.845934065934067,-1.0564615384615386,-1.0852087912087913,-9.709384615384616,-0.3809010989010989,-0.3377802197802198,0.64849853515625,-0.69427490234375,0.9002685546875,0.09918212890625,0.9307861328125,0.4730224609375,-28626,-28809
9.000581,5.486753730013007,4.113217448833666,32.328304290771484,32.44158935546875,-9.824373626373626,-0.7258681318681319,-0.7833626373626373,-9.860307692307693,-0.46714285714285714,-1.1355164835164837,0.52642822265625,0.28228759765625,1.60980224609375,0.00762939453125,0.0152587890625,0.03814697265625,-28599,-28779
9.040593,5.719741334181094,3.671598133866226,32.321495056152344,32.44386672973633,-9.69501098901099,-0.654,-0.9055384615384616,-9.73813186813187,-0.5605714285714286,-1.2361318681318683,-0.1678466796875,-1.2054443359375,0.518798828125,0.14495849609375,-0.1068115234375,0.06866455078125,-28585,-28812
9.080606,5.91663633800043,3.7811809688543008,32.321495056152344,32.44842529296875,-9.83156043956044,-0.6827472527472528,-0.8624175824175825,-9.774065934065934,-0.6036923076923078,-0.919912087912088,-0.6561279296875,-0.57220458984375,-0.4730224609375,0.5645751953125,0.58746337890625,0.4119873046875,-28608,-28753
9.120618,5.665924015391255,3.2299975765508435,32.3192253112793,32.44614791870117,-9.69501098901099,-0.6108791208791209,-0.7689890109890111,-9.69501098901099,-0.35215384615384615,-0.4096483516483516,0.6561279296875,-0.396728515625,-0.335693359375,-0.18310546875,-0.8697509765625,-1.16729736328125,-28608,-28793
9.160631,6.015085238301907,3.87042293329462,32.321495056152344,32.44386672973633,-9.716571428571429,-0.5821318681318681,-0.6324395604395605,-9.687824175824177,-0.6180659340659341,-0.919912087912088,0.34332275390625,0.701904296875,-0.91552734375,0.74005126953125,-0.213623046875,-0.16021728515625,-28527,-28768
9.23988,5.585854861548498,4.331737360774113,32.328304290771484,32.45070266723633,-9.788439560439562,-0.7330549450549451,-1.0708351648351648,-9.687824175824177,-0.5677582417582419,-0.7114945054945055,0.335693359375,0.29754638671875,-0.31280517578125,-0.32806396484375,-0.152587890625,-1.708984375,-28494,-28727
9.279894,5.227520138285257,3.770681964573427,32.321495056152344,32.44386672973633,-9.759692307692308,-0.8336703296703297,-0.9270989010989011,-9.774065934065934,-0.5030769230769231,-0.6827472527472528,0.3662109375,-0.396728515625,0.4425048828125,0.91552734375,0.41961669921875,0.640869140625,-28538,-28810
9.399933,6.068904364590665,4.331737360774113,32.32376480102539,32.45070266723633,-9.759692307692308,-0.574945054945055,-1.0205274725274727,-9.687824175824177,-0.5533846153846155,-0.6755604395604397,0.08392333984375,0.030517578125,-0.518798828125,-0.08392333984375,-0.81634521484375,1.02996826171875,-28568,-28738
9.439946,5.675112318392948,3.4484989255040404,32.32376480102539,32.45526123046875,-9.723758241758242,-0.7043076923076923,-1.0205274725274727,-9.774065934065934,-0.42402197802197805,-0.5461978021978022,-0.335693359375,-0.35858154296875,0.93841552734375,-0.25177001953125,-0.6103515625,-0.25177001953125,-28571,-28791
9.479959,5.54057012132381,3.8258018553194546,32.33057403564453,32.44614791870117,-9.623142857142858,-0.6036923076923078,-0.7977362637362638,-9.774065934065934,-0.6755604395604397,-1.078021978021978,-0.61798095703125,-0.18310546875,0.3814697265625,0.701904296875,-0.30517578125,0.23651123046875,-28539,-28873
9.519972,5.289866867451607,3.9347301178398197,32.328304290771484,32.45070266723633,-10.154967032967035,-0.5533846153846155,-2.0769890109890112,-9.795626373626375,-0.21560439560439562,-2.824417582417582,0.60272216796875,-0.72479248046875,0.274658203125,-0.26702880859375,0.41961669921875,-0.48065185546875,-28579,-28765
9.559985,5.81818836996672,3.4832758400763595,32.321495056152344,32.44842529296875,-10.126219780219781,-0.5102637362637363,-3.277186813186813,-9.788439560439562,-0.25872527472527473,-0.5246373626373626,-1.27410888671875,-0.640869140625,0.274658203125,0.1068115234375,-0.42724609375,0.05340576171875,-28550,-28811
9.720035,5.782747329690835,3.9347301178398197,32.328304290771484,32.45070266723633,-9.666263736263737,-0.963032967032967,-3.528725274725275,-9.601582417582417,-0.8480439560439561,0.5677582417582419,0.5645751953125,0.69427490234375,-0.43487548828125,0.06103515625,0.2593994140625,-0.2593994140625,-28551,-28814
9.760048,5.872006476973482,3.924887155651504,32.32376480102539,32.44614791870117,-9.393164835164836,-0.9127252747252748,-1.7751428571428571,-9.774065934065934,-0.4958901098901099,0.6180659340659341,0.732421875,0.06103515625,-0.12969970703125,-0.1220703125,0.03814697265625,-0.3204345703125,-28519,-28810
9.879109,5.738118043430205,3.84548760141044,32.33057403564453,32.45526123046875,-9.400351648351648,-0.7761758241758242,1.5164175824175825,-9.615956043956045,-0.7186813186813188,0.6108791208791209,0.96893310546875,-0.17547607421875,-0.38909912109375,0.08392333984375,1.1444091796875,-0.37384033203125,-28560,-28799
9.919122,5.7735589315640965,3.9347301178398197,32.32376480102539,32.45070266723633,-9.443472527472528,-0.7977362637362638,2.29978021978022,-9.644703296703296,-0.4958901098901099,-0.6396263736263736,-0.45013427734375,0.48828125,-0.14495849609375,0.28228759765625,0.1220703125,0.20599365234375,-28526,-28805
9.959135,5.7735589315640965,3.84548760141044,32.32376480102539,32.45526123046875,-9.975296703296703,-0.883978021978022,-4.5061318681318685,-9.903428571428572,-0.43839560439560443,-2.6303736263736264,-0.3662109375,-0.41961669921875,0.3509521484375,0.84686279296875,0.274658203125,1.67083740234375,-28552,-28792
9.999148,6.167354706837827,3.647319458459961,32.32376480102539,32.45526123046875,-9.845934065934067,-1.0205274725274727,-3.8233846153846156,-9.917802197802198,-0.5533846153846155,-2.2566593406593407,-0.28228759765625,-0.396728515625,0.38909912109375,-0.1220703125,0.35858154296875,-0.18310546875,-28591,-28763
10.039161,5.478221888681716,3.9006078887552604,32.32376480102539,32.457542419433594,-9.766879120879121,-0.6108791208791209,1.1786373626373627,-9.69501098901099,-0.3880879120879121,-2.364461538461539,-0.05340576171875,-0.06103515625,-0.11444091796875,0.8544921875,-0.335693359375,0.0762939453125,-28562,-28787
10.079174,5.9704549546457315,3.9347301178398197,32.32376480102539,32.45070266723633,-9.96810989010989,-0.6324395604395605,-0.5246373626373626,-9.932175824175824,-0.39527472527472535,-1.8613846153846154,-0.34332275390625,-0.67901611328125,0.1373291015625,0.9002685546875,0.14495849609375,0.00762939453125,-28574,-28750
10.119186,5.684300629510389,4.352080288966974,32.328304290771484,32.45981979370117,-9.436285714285715,-0.9342857142857143,-0.7258681318681319,-9.759692307692308,-0.4024615384615385,0.3018461538461539,-0.152587890625,-0.335693359375,-0.1220703125,0.22125244140625,-1.16729736328125,-0.0457763671875,-28576,-28794
10.159199,5.478221888681716,3.458997604436405,32.32376480102539,32.45981979370117,-9.465032967032968,-0.7833626373626373,1.2720659340659342,-9.92498901098901,-0.43839560439560443,-2.7453626373626374,-0.4425048828125,-0.946044921875,0.213623046875,0.0762939453125,-0.51116943359375,0.22125244140625,-28538,-28796
10.279238,5.594386791212997,4.088937742131719,32.33284378051758,32.45298385620117,-9.795626373626375,-0.6468131868131869,-0.9414725274725276,-9.752505494505495,-0.43839560439560443,-0.5318241758241758,0.09918212890625,0.152587890625,0.4119873046875,-0.152587890625,-0.152587890625,-0.61798095703125,-28551,-28728
10.440481,5.827376807540233,3.2601806727223703,32.32603454589844,32.45981979370117,-9.723758241758242,-0.5965054945054945,-0.8121098901098901,-9.752505494505495,-0.43839560439560443,-0.41683516483516486,-0.2593994140625,-1.068115234375,0.31280517578125,0.69427490234375,0.3509521484375,0.26702880859375,-28560,-28756
10.520507,5.925824862583241,3.711625263052184,32.32603454589844,32.462100982666016,-10.21246153846154,-0.8192967032967032,-4.067736263736264,-9.67345054945055,-0.4096483516483516,-1.7751428571428571,0.98419189453125,0.4119873046875,-0.1678466796875,-0.1220703125,0.22125244140625,-0.5950927734375,-28544,-28768
10.600532,5.639671765859305,3.8113656652163286,32.33057403564453,32.462100982666016,-9.486593406593407,-0.6468131868131869,2.378835164835165,-9.687824175824177,-0.3737142857142858,-1.8613846153846154,-0.84686279296875,-1.25885009765625,-0.79345703125,-0.58746337890625,-0.8697509765625,-1.36566162109375,-28569,-28834
10.640545,6.37344710851977,4.153246278281372,32.328304290771484,32.45981979370117,-9.65189010989011,-0.5605714285714286,1.5092307692307694,-9.766879120879121,-0.2371648351648352,-2.7956703296703296,0.34332275390625,0.6256103515625,-0.5950927734375,0.80108642578125,-0.8087158203125,-0.46539306640625,-28531,-28761
10.681734,5.397497890299249,3.8008666304558716,32.33284378051758,32.457542419433594,-9.874681318681318,-0.6396263736263736,1.0995824175824176,-9.795626373626375,-0.5965054945054945,-2.824417582417582,-0.19073486328125,-0.2288818359375,0.0762939453125,-0.2288818359375,-0.1220703125,-0.06103515625,-28567,-28800
10.721746,5.693488948748495,3.855986681228316,32.33284378051758,32.45981979370117,-9.486593406593407,-1.0564615384615386,-1.6601538461538463,-9.85312087912088,-0.41683516483516486,-2.4075824175824176,-0.3662109375,0.0762939453125,0.1678466796875,0.518798828125,0.5340576171875,-0.2899169921875,-28541,-28813
10.761758,5.791935735938239,3.403879658305584,32.33284378051758,32.457542419433594,-10.047164835164835,-0.5533846153846155,-1.4373626373626376,-9.889054945054946,-0.459956043956044,-1.9691868131868133,0.38909912109375,0.16021728515625,0.4425048828125,0.46539306640625,-0.3509521484375,0.79345703125,-28567,-28756
10.80177,5.8365652532294945,4.396703625719027,32.33057403564453,32.457542419433594,-10.119032967032968,-0.574945054945055,-2.7884835164835167,-9.716571428571429,-0.6468131868131869,0.43120879120879124,0.12969970703125,-0.93841552734375,0.90789794921875,-0.25177001953125,0.12969970703125,0.02288818359375,-28568,-28784
10.841782,5.684300629510389,3.10598534015341,32.328304290771484,32.457542419433594,-9.385978021978023,-0.8192967032967032,1.5164175824175825,-9.81,-0.4096483516483516,-1.7895164835164834,0.80108642578125,-0.16021728515625,1.0986328125,0.23651123046875,0.762939453125,-0.9307861328125,-28574,-28760
11.218082,6.042651097450076,3.270023005637455,48.33511352539063,32.464378356933594,-9.508153846153846,-0.8983516483516484,-1.14989010989011,-9.881868131868131,-0.8336703296703297,-0.0574945054945055,-0.52642822265625,0.3204345703125,0.52642822265625,0.06103515625,-0.18310546875,0.2899169921875,-28556,-28799
11.338121,5.6127632788809905,3.821208519931261,32.091922760009766,32.21665954589844,-9.817186813186813,-0.8192967032967032,-1.1427032967032968,-9.709384615384616,-0.4024615384615385,-0.7258681318681319,0.31280517578125,0.67901611328125,0.67138671875,-0.6256103515625,0.2899169921875,0.14495849609375,-28605,-28734
11.378134,6.105659049972573,3.379601608067915,32.341922760009766,32.468936920166016,-9.637516483516483,-0.7114945054945055,-0.9774065934065935,-9.73813186813187,-0.5605714285714286,-1.4014285714285715,-0.57220458984375,0.8087158203125,0.52642822265625,0.518798828125,-0.09918212890625,0.14495849609375,-28551,-28796
11.538183,5.711209301644914,3.9754144604291355,32.341922760009766,32.468936920166016,-9.33567032967033,-0.7977362637362638,0.02156043956043956,-9.572835164835166,-0.8696043956043957,0.5893186813186814,0.02288818359375,-1.48773193359375,-0.8544921875,-0.17547607421875,-0.75531005859375,-0.4119873046875,-28541,-28759
11.578195,5.953390485055692,3.875672484469149,32.33965301513672,32.468936920166016,-9.436285714285715,-0.9486593406593408,1.422989010989011,-9.659076923076924,-0.8624175824175825,-0.7761758241758242,0.75531005859375,0.69427490234375,-0.213623046875,-0.7171630859375,0.579833984375,-0.244140625,-28535,-28791
11.801718,5.52350635733147,3.55348619191453,32.34646224975586,32.48033142089844,-9.759692307692308,-0.8192967032967032,-0.7761758241758242,-9.795626373626375,-0.4024615384615385,-1.193010989010989,-0.40435791015625,0.09918212890625,-0.091552734375,-0.28228759765625,-0.152587890625,0.8087158203125,-28587,-28722
11.881742,5.6219515348959845,3.598106101172604,32.34646224975586,32.47805404663086,-9.788439560439562,-0.804923076923077,-1.1858241758241759,-9.659076923076924,-0.5893186813186814,-1.2145714285714286,-0.00762939453125,-0.3509521484375,0.28228759765625,-0.14495849609375,0.6256103515625,0.09918212890625,-28567,-28747
12.081803,6.024930179605974,4.0948436115163815,32.35100173950195,32.47805404663086,-9.766879120879121,-0.6683736263736263,-1.0133406593406593,-9.67345054945055,-0.4024615384615385,-0.3737142857142858,-0.75531005859375,0.244140625,-0.244140625,0.4425048828125,0.091552734375,0.11444091796875,-28563,-28801
12.121815,5.961922716346507,3.707688161547111,32.34419250488281,32.48261260986328,-9.759692307692308,-0.6827472527472528,-1.0923956043956045,-9.817186813186813,-0.5605714285714286,-0.5965054945054945,-0.12969970703125,-0.2593994140625,0.54168701171875,-0.05340576171875,-0.1220703125,-0.1373291015625,-28524,-28775
12.161827,5.971111280956848,3.697189231479328,32.348731994628906,32.47805404663086,-9.73813186813187,-0.6755604395604397,-0.8696043956043957,-9.73813186813187,-0.539010989010989,-1.264879120879121,-0.89263916015625,-0.38909912109375,0.64849853515625,0.091552734375,0.091552734375,1.15966796875,-28509,-28809
12.241853,6.213298518942892,4.149309009534775,32.34646224975586,32.48033142089844,-9.838747252747254,-0.8121098901098901,-1.0708351648351648,-9.752505494505495,-0.4958901098901099,-0.5533846153846155,-0.1068115234375,-0.14495849609375,0.41961669921875,-0.03814697265625,0.45013427734375,0.23651123046875,-28536,-28800
12.281866,5.514318188320857,3.8067723362016324,32.341922760009766,32.48261260986328,-9.838747252747254,-0.5102637362637363,-0.9558461538461539,-9.867494505494506,-0.654,-0.8264835164835166,-0.30517578125,0.26702880859375,-0.274658203125,-0.89263916015625,-0.2899169921875,-1.2664794921875,-28557,-28779
12.321878,5.6219515348959845,3.3999426733345928,32.34646224975586,32.47805404663086,-9.759692307692308,-0.7258681318681319,-0.9917802197802198,-9.709384615384616,-0.43120879120879124,-1.2720659340659342,0.3662109375,1.2054443359375,0.63323974609375,-0.26702880859375,1.13677978515625,0.34332275390625,-28564,-28696
12.374489,5.478878183922646,3.7418097574752807,32.348731994628906,32.47577667236328,-9.709384615384616,-0.6180659340659341,-0.8696043956043957,-9.730945054945055,-0.48870329670329676,-0.5533846153846155,0.0457763671875,-0.19073486328125,-0.42724609375,0.14495849609375,0.80108642578125,-0.701904296875,-28547,-28784
12.414502,5.425062111955995,4.039722294386834,32.34646224975586,32.47577667236328,-9.766879120879121,-0.804923076923077,-0.8552307692307692,-9.716571428571429,-0.3305934065934066,-0.42402197802197805,0.2899169921875,0.3662109375,1.39617919921875,0.0,-0.06866455078125,-0.3662109375,-28540,-28780
12.494527,6.204109740281524,3.707688161547111,32.341922760009766,32.48261260986328,-9.69501098901099,-0.7618021978021978,-0.7905494505494507,-9.903428571428572,-0.6324395604395605,-1.2792527472527473,0.67138671875,0.29754638671875,1.190185546875,0.732421875,-0.3204345703125,-0.11444091796875,-28547,-28715
12.614564,5.666580322478524,3.841550449207773,32.34419250488281,32.47577667236328,-9.795626373626375,-0.6252527472527473,-0.9702197802197802,-9.788439560439562,-0.6899340659340659,-1.264879120879121,-0.09918212890625,-0.48828125,1.21307373046875,0.3662109375,0.2593994140625,-0.5950927734375,-28563,-28714
12.852814,5.953390485055692,3.5088664741517164,32.33965301513672,32.48261260986328,-9.67345054945055,-0.654,-0.919912087912088,-9.766879120879121,-0.5318241758241758,-0.4527692307692308,0.31280517578125,0.00762939453125,1.36566162109375,0.3662109375,-1.0223388671875,-0.274658203125,-28566,-28795
12.892828,5.532694534462777,3.598106101172604,32.35100173950195,32.47805404663086,-9.702197802197803,-0.6683736263736263,-0.6827472527472528,-9.788439560439562,-0.5677582417582419,-0.9702197802197802,0.823974609375,-0.1068115234375,1.2664794921875,0.274658203125,-0.5340576171875,0.20599365234375,-28560,-28774
12.932841,6.213298518942892,3.454404431097416,32.34646224975586,32.48033142089844,-9.795626373626375,-0.7474285714285716,-0.9270989010989011,-9.838747252747254,-0.8552307692307692,-1.4014285714285715,0.030517578125,-0.1068115234375,0.54931640625,-0.274658203125,-0.66375732421875,-0.1678466796875,-28546,-28738
12.972853,5.675768626060972,3.7523087325955657,32.348731994628906,32.48033142089844,-9.680637362637363,-0.6827472527472528,-0.7761758241758242,-9.81,-0.654,-0.6971208791208792,-0.7171630859375,-0.30517578125,-0.60272216796875,-0.31280517578125,-0.80108642578125,-0.4730224609375,-28551,-28776
13.012866,5.281991470505986,4.005599720710222,32.348731994628906,32.48261260986328,-9.702197802197803,-0.5677582417582419,-0.7546153846153847,-9.73813186813187,-0.36652747252747253,-0.5030769230769231,0.06866455078125,-1.0986328125,0.213623046875,-0.05340576171875,-0.091552734375,-0.12969970703125,-28536,-28819
13.052879,5.917292660915635,3.841550449207773,32.34646224975586,32.47577667236328,-9.745318681318683,-0.6252527472527473,-0.9055384615384616,-9.889054945054946,-0.804923076923077,-1.4804835164835164,-0.28228759765625,0.152587890625,-0.20599365234375,-0.2593994140625,-0.0762939453125,0.66375732421875,-28553,-28750
13.132904,5.774215245448119,3.707688161547111,32.348731994628906,32.48261260986328,-9.85312087912088,-0.654,-1.113956043956044,-9.766879120879121,-0.6252527472527473,-0.6827472527472528,0.54931640625,0.8087158203125,-0.244140625,-0.213623046875,0.030517578125,-0.91552734375,-28591,-28723
13.172917,6.221830963546523,3.5088664741517164,32.35100173950195,32.48261260986328,-9.73813186813187,-0.919912087912088,-0.9414725274725276,-9.817186813186813,-0.654,-1.2792527472527473,-0.701904296875,-0.45013427734375,0.96893310546875,-0.30517578125,-0.152587890625,-0.79345703125,-28535,-28771
13.212892,5.872662797073517,3.55348619191453,32.348731994628906,32.48033142089844,-9.680637362637363,-0.7258681318681319,-0.9702197802197802,-9.795626373626375,-0.7977362637362638,-1.113956043956044,0.29754638671875,-0.14495849609375,-1.10626220703125,0.946044921875,-0.213623046875,-1.0986328125,-28532,-28810
13.252905,5.586511163581278,2.978037757718468,32.353271484375,32.48944854736328,-9.702197802197803,-0.7114945054945055,-0.8408571428571429,-9.709384615384616,-0.6755604395604397,-0.43839560439560443,0.1983642578125,-0.58746337890625,-0.18310546875,-0.43487548828125,-0.6103515625,0.16021728515625,-28564,-28784
13.292918,5.729585995809259,3.8067723362016324,32.35100173950195,32.48261260986328,-9.716571428571429,-0.5893186813186814,-0.9702197802197802,-9.687824175824177,-0.48870329670329676,-0.5965054945054945,0.4425048828125,1.02996826171875,0.09918212890625,0.61798095703125,-0.19073486328125,-0.34332275390625,-28555,-28757
13.440179,5.389622411817172,3.9609780625746396,32.353271484375,32.48488998413086,-9.680637362637363,-0.7546153846153847,-1.106769230769231,-9.774065934065934,-0.2874725274725275,-1.0564615384615386,-0.3204345703125,-0.3509521484375,0.46539306640625,-0.1068115234375,-1.12152099609375,-0.8087158203125,-28619,-28771
13.560217,5.5773229388923795,3.255587587219523,32.348731994628906,32.48033142089844,-9.45065934065934,-0.883978021978022,-0.30903296703296707,-9.939362637362638,-0.15810989010989013,-1.1786373626373627,-0.67901611328125,-0.23651123046875,0.75531005859375,0.244140625,-0.213623046875,-0.2593994140625,-28548,-28750
13.680256,5.774215245448119,4.084344290485049,32.348731994628906,32.47349548339844,-9.939362637362638,-0.6611868131868132,-4.146791208791209,-9.802813186813188,-0.44558241758241757,0.5677582417582419,0.46539306640625,-0.08392333984375,0.03814697265625,0.67138671875,-0.1678466796875,-0.29754638671875,-28559,-28824
13.720268,5.809656256637254,3.146666439858649,32.341922760009766,32.47577667236328,-9.730945054945055,-0.6755604395604397,2.084175824175824,-9.529714285714286,-0.6899340659340659,0.5533846153846155,-0.4119873046875,-0.4730224609375,-0.396728515625,0.3662109375,1.01470947265625,0.22125244140625,-28567,-28733
13.840307,6.267118671359611,3.9307929318453176,32.348731994628906,32.47121810913086,-9.730945054945055,-0.6611868131868132,-0.8480439560439561,-9.838747252747254,-0.41683516483516486,-0.919912087912088,1.53350830078125,1.36566162109375,0.0457763671875,0.38909912109375,-0.30517578125,0.25177001953125,-28548,-28839
13.880319,5.6127632788809905,3.875672484469149,32.341922760009766,32.468936920166016,-9.716571428571429,-0.7330549450549451,-0.919912087912088,-9.759692307692308,-0.5461978021978022,-1.2145714285714286,0.31280517578125,0.32806396484375,0.244140625,0.030517578125,0.06103515625,-1.3427734375,-28539,-28803
13.920332,5.908104143872748,3.9754144604291355,32.341922760009766,32.468936920166016,-9.874681318681318,-0.8264835164835166,-1.1427032967032968,-9.745318681318683,-0.459956043956044,-0.7833626373626373,0.54168701171875,0.335693359375,0.3509521484375,-0.2593994140625,1.40380859375,-0.70953369140625,-28557,-28792
13.960345,6.105659049972573,3.8310513839677327,32.341922760009766,32.47121810913086,-9.788439560439562,-0.7833626373626373,-1.106769230769231,-9.745318681318683,-0.5533846153846155,-0.574945054945055,0.23651123046875,1.0986328125,0.1373291015625,-0.2899169921875,0.9002685546875,-0.75531005859375,-28579,-28720
14.220463,5.52350635733147,3.3002062180034812,32.34646224975586,32.47805404663086,-9.371604395604397,-0.963032967032967,1.1427032967032968,-9.824373626373626,-0.5677582417582419,-3.0184615384615388,0.030517578125,-0.98419189453125,0.43487548828125,0.30517578125,0.579833984375,-0.6561279296875,-28598,-28740
14.300488,5.631139799031658,3.4445619236371385,32.35100173950195,32.47577667236328,-10.154967032967035,-0.5677582417582419,-3.5143516483516484,-9.81,-0.3377802197802198,-2.3213406593406596,-0.25177001953125,0.5035400390625,0.6103515625,0.83160400390625,-0.6256103515625,-0.0762939453125,-28559,-28777
14.380513,5.674456010764288,3.8067723362016324,32.353271484375,32.48261260986328,-9.5369010989011,-0.883978021978022,-2.2925934065934066,-9.723758241758242,-0.6180659340659341,-2.7453626373626374,-0.18310546875,-0.0457763671875,-0.244140625,-0.64849853515625,-0.83160400390625,0.09918212890625,-28587,-28781
14.460537,5.5773229388923795,3.663067781993931,32.348731994628906,32.48488998413086,-10.133406593406596,-0.6108791208791209,-2.817230769230769,-9.766879120879121,-0.5246373626373626,-0.21560439560439562,0.42724609375,-0.67901611328125,0.579833984375,-0.30517578125,-0.45013427734375,-0.38909912109375,-28555,-28803
14.500549,5.7203976446692195,3.2660860713542093,32.34646224975586,32.48488998413086,-9.299736263736264,-0.7474285714285716,1.6529670329670332,-9.544087912087912,-0.7618021978021978,0.5174505494505495,-0.52642822265625,0.98419189453125,-0.6103515625,0.46539306640625,-0.5950927734375,0.9613037109375,-28579,-28826
14.580575,5.971111280956848,3.7719943395277795,32.348731994628906,32.48944854736328,-9.960923076923077,-0.7186813186813188,-4.204285714285715,-9.795626373626375,-0.9702197802197802,0.8696043956043957,-0.22125244140625,-0.32806396484375,-0.08392333984375,0.34332275390625,-0.8087158203125,-0.6256103515625,-28610,-28801
14.638426,6.12338010542021,3.3750084698053087,32.35100173950195,32.48944854736328,-9.33567032967033,-0.7905494505494507,1.990747252747253,-9.824373626373626,-0.32340659340659345,-2.9322197802197802,0.12969970703125,-0.58746337890625,-0.12969970703125,-0.2899169921875,0.213623046875,-0.54931640625,-28610,-28801
14.718452,5.532694534462777,3.6086049311789594,32.35100173950195,32.48261260986328,-9.92498901098901,-0.6252527472527473,-4.168351648351648,-9.795626373626375,-0.7977362637362638,0.2874725274725275,-0.335693359375,0.30517578125,-1.06048583984375,0.396728515625,-0.4730224609375,0.31280517578125,-28599,-28792
14.758465,5.881851282790308,3.881578232713082,32.353271484375,32.4940071105957,-9.745318681318683,-0.7689890109890111,-3.4137362637362636,-9.824373626373626,-0.20841758241758243,-2.0123076923076924,-0.2593994140625,1.25885009765625,0.20599365234375,1.0833740234375,0.60272216796875,0.98419189453125,-28551,-28764
14.798478,5.729585995809259,4.0252858072394275,32.35100173950195,32.491729736328125,-9.960923076923077,-0.8552307692307692,0.21560439560439562,-9.69501098901099,-0.5821318681318681,0.7977362637362638,-0.02288818359375,-0.2288818359375,0.0152587890625,-0.4730224609375,-0.84686279296875,0.34332275390625,-28546,-28867
14.838491,5.684956937759168,3.3750084698053087,32.353271484375,32.48944854736328,-10.075912087912087,-0.4527692307692308,-1.5020439560439562,-9.659076923076924,-0.7905494505494507,0.3737142857142858,0.00762939453125,1.1444091796875,-0.17547607421875,-0.20599365234375,-0.8392333984375,-0.030517578125,-28584,-28754
14.878503,5.738774355074895,3.4845881787534694,32.35554122924805,32.4940071105957,-9.730945054945055,-0.7761758241758242,-0.8911648351648351,-9.723758241758242,-0.41683516483516486,-1.0852087912087913,0.5035400390625,-0.396728515625,-0.34332275390625,0.69427490234375,-0.823974609375,-0.70953369140625,-28558,-28822
14.958529,6.177199792340389,3.5836702272195,32.353271484375,32.4940071105957,-9.745318681318683,-0.7474285714285716,-1.1283296703296704,-9.903428571428572,-0.7114945054945055,-0.5533846153846155,-0.64849853515625,-1.18255615234375,-0.9765625,-0.2899169921875,0.213623046875,0.93841552734375,-28587,-28768
15.11858,5.935669719363418,4.125029218545194,32.35554122924805,32.491729736328125,-9.702197802197803,-0.6755604395604397,-1.0205274725274727,-9.766879120879121,-0.5677582417582419,-1.2792527472527473,-0.48065185546875,-0.2593994140625,0.37384033203125,-0.1220703125,-0.09918212890625,0.457763671875,-28566,-28772
15.158593,5.935669719363418,3.683409401863045,32.35554122924805,32.4940071105957,-9.601582417582417,-0.7546153846153847,-0.883978021978022,-9.766879120879121,-0.4024615384615385,-1.2720659340659342,-0.43487548828125,-1.0986328125,-0.23651123046875,0.60272216796875,0.2899169921875,-0.38909912109375,-28568,-28787
15.281041,5.783403644155612,3.8271142372329763,32.353271484375,32.491729736328125,-9.774065934065934,-0.7330549450549451,-0.9845934065934067,-9.702197802197803,-0.5318241758241758,-1.1642637362637362,0.70953369140625,-0.5340576171875,-0.5645751953125,0.29754638671875,0.0457763671875,-0.2899169921875,-28552,-28766
15.321053,5.308899101368738,3.9609780625746396,32.36235046386719,32.48488998413086,-9.766879120879121,-0.6468131868131869,-0.963032967032967,-9.687824175824177,-0.48870329670329676,-0.5605714285714286,0.25177001953125,0.67901611328125,0.64849853515625,-0.32806396484375,-0.4425048828125,0.1983642578125,-28555,-28858
15.361065,5.846410025485795,3.4747456427133443,32.36008071899414,32.48944854736328,-9.709384615384616,-0.7114945054945055,-0.8696043956043957,-9.702197802197803,-0.4743296703296704,-0.5318241758241758,0.6561279296875,-1.068115234375,0.37384033203125,0.274658203125,-0.90789794921875,0.030517578125,-28541,-28817
15.401075,5.649516351665014,3.7280298687159075,32.36008071899414,32.491729736328125,-9.774065934065934,-0.6827472527472528,-0.8911648351648351,-9.752505494505495,-0.5102637362637363,-1.4158021978021977,0.49591064453125,-0.86212158203125,0.14495849609375,-0.79345703125,0.09918212890625,-0.244140625,-28512,-28783
15.441087,5.398154180441395,3.683409401863045,32.357810974121094,32.4940071105957,-9.73813186813187,-0.7546153846153847,-1.0636483516483517,-9.716571428571429,-0.46714285714285714,-0.9342857142857143,0.67138671875,1.04522705078125,0.54931640625,0.52642822265625,-0.518798828125,0.701904296875,-28596,-28730
15.481098,5.738774355074895,3.816615186570772,32.35554122924805,32.4871711730957,-9.680637362637363,-0.6036923076923078,-0.8911648351648351,-9.73813186813187,-0.5246373626373626,-0.43120879120879124,-0.4730224609375,0.51116943359375,-1.13677978515625,0.61798095703125,0.54931640625,-0.457763671875,-28538,-28797
15.521111,5.595699396395759,3.8271142372329763,32.357810974121094,32.491729736328125,-9.752505494505495,-0.8264835164835166,-1.1642637362637362,-9.817186813186813,-0.4743296703296704,-1.2792527472527473,-0.14495849609375,-0.41961669921875,-0.20599365234375,-0.7171630859375,0.2593994140625,0.640869140625,-28617,-28790
15.601135,5.846410025485795,3.7175309181101994,32.36008071899414,32.4871711730957,-9.69501098901099,-0.7186813186813188,-0.8552307692307692,-9.766879120879121,-0.5605714285714286,-0.6396263736263736,-0.83160400390625,-0.22125244140625,0.58746337890625,0.54168701171875,0.51116943359375,0.28228759765625,-28568,-28793
15.761183,5.900228278585885,4.035785068630588,32.36235046386719,32.49628829956055,-9.889054945054946,-0.34496703296703296,0.48870329670329676,-9.69501098901099,-0.7761758241758242,0.7618021978021978,0.1983642578125,-1.16729736328125,0.8697509765625,0.90789794921875,-0.57220458984375,-0.96893310546875,-28561,-28762
15.838859,5.989488434534607,4.035785068630588,32.357810974121094,32.49628829956055,-10.119032967032968,-0.46714285714285714,-2.9250329670329673,-9.795626373626375,-0.3305934065934066,-2.5441318681318683,0.1373291015625,0.030517578125,-0.48828125,0.54168701171875,0.0457763671875,-0.19073486328125,-28584,-28796
15.878872,5.747962722456279,4.035785068630588,32.36008071899414,32.49628829956055,-9.508153846153846,-0.9702197802197802,1.3654945054945056,-9.766879120879121,-0.654,-0.7977362637362638,0.0762939453125,0.1220703125,-0.6561279296875,0.02288818359375,0.55694580078125,1.1138916015625,-28596,-28791
15.918885,5.505786324369794,3.6387891265054435,32.36235046386719,32.49628829956055,-9.774065934065934,-0.6827472527472528,-0.883978021978022,-9.802813186813188,-0.6180659340659341,-1.3654945054945056,-0.4425048828125,0.20599365234375,1.1138916015625,0.3509521484375,-0.91552734375,-0.45013427734375,-28575,-28816
15.958898,6.097126700710547,4.035785068630588,32.36235046386719,32.49628829956055,-9.716571428571429,-0.6036923076923078,-0.8552307692307692,-9.781252747252747,-0.5174505494505495,-1.3439340659340662,0.244140625,0.030517578125,0.16021728515625,0.12969970703125,0.64849853515625,-1.2054443359375,-28556,-28820
15.998911,5.649516351665014,3.405191986962265,32.36008071899414,32.50312423706055,-9.716571428571429,-0.804923076923077,-1.078021978021978,-9.745318681318683,-0.43120879120879124,-0.7618021978021978,0.14495849609375,-0.54931640625,-0.02288818359375,-0.64849853515625,0.32806396484375,-0.885009765625,-28586,-28732
16.038924,5.900228278585885,4.233960616190799,32.36235046386719,32.49628829956055,-9.73813186813187,-0.6971208791208792,-0.9486593406593408,-9.874681318681318,-0.5965054945054945,-0.7330549450549451,0.00762939453125,0.030517578125,-1.6937255859375,-0.22125244140625,0.1373291015625,0.00762939453125,-28589,-28814
16.078937,6.240208560325883,3.7030948783379216,32.36008071899414,32.50312423706055,-9.781252747252747,-0.7761758241758242,-1.078021978021978,-9.73813186813187,-0.6396263736263736,-1.3223736263736263,0.1373291015625,-0.3204345703125,1.40380859375,1.3885498046875,-0.18310546875,0.213623046875,-28536,-28837
16.11895,5.407342246787053,3.7378726445372763,32.36235046386719,32.49628829956055,-9.824373626373626,-0.8767912087912089,-1.0133406593406593,-9.817186813186813,-0.5533846153846155,-1.1858241758241759,-0.1373291015625,-0.11444091796875,-0.67901611328125,-0.5340576171875,-0.16021728515625,-0.03814697265625,-28615,-28713
16.158963,6.195577310221282,3.7378726445372763,32.36235046386719,32.49628829956055,-9.357230769230771,-0.8192967032967032,0.25153846153846154,-9.996857142857143,-0.7833626373626373,-0.46714285714285714,-0.30517578125,-0.579833984375,-0.28228759765625,0.152587890625,0.60272216796875,0.3509521484375,-28572,-28841
16.198976,5.658048333572495,3.79233617251775,32.364620208740234,32.498565673828125,-10.025604395604395,-0.3809010989010989,-2.9106593406593406,-9.788439560439562,-0.9270989010989011,0.3305934065934066,0.37384033203125,0.58746337890625,-0.14495849609375,-1.03759765625,-0.09918212890625,0.1373291015625,-28518,-28738
16.238989,5.810968889002112,3.1965338114824675,32.36688995361328,32.498565673828125,-10.025604395604395,-0.6396263736263736,-3.9383736263736266,-9.69501098901099,-0.8624175824175825,-0.6971208791208792,0.4425048828125,-1.007080078125,-0.18310546875,-0.48828125,0.3662109375,-0.17547607421875,-28529,-28751
16.279002,5.461158227024583,3.891421153899401,32.364620208740234,32.498565673828125,-9.558461538461538,-0.7833626373626373,2.4722637362637365,-9.65189010989011,-0.4815164835164835,1.2073846153846155,-0.3814697265625,-0.6256103515625,0.06866455078125,0.26702880859375,1.24359130859375,0.32806396484375,-28548,-28767
16.455134,6.097126700710547,3.569234373312156,32.36235046386719,32.50996398925781,-9.659076923076924,-0.5893186813186814,1.9620000000000002,-9.680637362637363,-0.7761758241758242,-0.6036923076923078,0.213623046875,-0.20599365234375,0.35858154296875,0.6103515625,-0.030517578125,0.25177001953125,-28552,-28833
16.495146,5.130391242008145,4.001006305882186,32.371429443359375,32.50312423706055,-9.67345054945055,-0.6755604395604397,-0.9270989010989011,-9.759692307692308,-0.8480439560439561,-1.1427032967032968,0.70953369140625,-1.13677978515625,0.1678466796875,0.84686279296875,-0.152587890625,-0.4730224609375,-28545,-28757
16.57517,5.864786958634099,3.6138543501588174,32.36915969848633,32.50768280029297,-9.73813186813187,-0.7330549450549451,-0.8480439560439561,-9.702197802197803,-0.4958901098901099,-0.9055384615384616,0.02288818359375,-0.26702880859375,0.0457763671875,-0.41961669921875,-0.16021728515625,0.09918212890625,-28526,-28761
16.615183,5.963235367940129,4.011505542753838,32.36915969848633,32.50768280029297,-9.781252747252747,-0.5318241758241758,-1.0133406593406593,-9.752505494505495,-0.7546153846153847,-1.4876703296703295,-0.6256103515625,-0.09918212890625,0.63323974609375,0.12969970703125,-0.02288818359375,-0.7476806640625,-28548,-28760
16.655196,4.888229229192902,3.7680572151617895,32.37369918823242,32.50996398925781,-9.659076923076924,-0.7833626373626373,-0.8983516483516484,-9.730945054945055,-0.6108791208791209,-0.8121098901098901,0.61798095703125,-0.17547607421875,0.4119873046875,-0.26702880859375,-0.06866455078125,-0.9002685546875,-28553,-28734
16.695209,6.169323723190246,4.483325943801859,32.37369918823242,32.51907730102539,-9.781252747252747,-0.7689890109890111,-1.0708351648351648,-9.723758241758242,-0.5605714285714286,-0.574945054945055,-0.46539306640625,0.8392333984375,-0.31280517578125,0.03814697265625,-0.2288818359375,-1.12152099609375,-28555,-28753
16.775234,5.9186053068690825,3.589575809595047,32.371429443359375,32.51907730102539,-9.65189010989011,-0.7618021978021978,-2.4938241758241757,-9.774065934065934,-0.2874725274725275,-2.5513186813186817,0.31280517578125,0.61798095703125,-0.95367431640625,-0.823974609375,-0.02288818359375,0.640869140625,-28583,-28748
16.815247,5.6317961039238895,3.544955936948895,32.37596893310547,32.521358489990234,-9.982483516483516,-0.574945054945055,-0.2874725274725275,-9.85312087912088,-0.2659120879120879,-0.5461978021978022,0.54168701171875,0.030517578125,-1.21307373046875,-0.0457763671875,-0.091552734375,-0.1373291015625,-28568,-28778
16.895273,5.8733191172129295,3.788399040444503,32.37369918823242,32.51907730102539,-9.414725274725276,-0.7689890109890111,1.0923956043956045,-9.83156043956044,-0.34496703296703296,-1.6314065934065933,1.18255615234375,0.18310546875,0.6256103515625,-0.25177001953125,0.244140625,-0.091552734375,-28538,-28833
16.935286,5.34565109995043,3.808084715713406,32.38050842285156,32.528194427490234,-9.486593406593407,-0.8552307692307692,2.335714285714286,-9.709384615384616,-0.6180659340659341,1.0564615384615386,0.1373291015625,1.1749267578125,0.63323974609375,-0.22125244140625,0.396728515625,0.45013427734375,-28542,-28774
16.975298,5.434906494548059,4.041690907821106,32.37596893310547,32.521358489990234,-9.889054945054946,-0.6108791208791209,-4.3911428571428575,-9.615956043956045,-0.5246373626373626,0.4743296703296704,0.152587890625,0.1373291015625,-0.213623046875,0.26702880859375,-0.274658203125,-0.43487548828125,-28574,-28801
17.1131,5.542539018971723,3.8776410668430827,32.38050842285156,32.51451873779297,-9.802813186813188,-0.6755604395604397,-0.8767912087912089,-9.730945054945055,-0.2946593406593407,-0.5965054945054945,-0.37384033203125,0.00762939453125,-0.31280517578125,-0.0457763671875,-0.17547607421875,0.23651123046875,-28563,-28750
17.193125,5.425718403840392,3.8225209012640278,32.371429443359375,32.51224136352539,-9.716571428571429,-0.6755604395604397,-1.0995824175824176,-9.687824175824177,-0.5677582417582419,-0.5533846153846155,-0.091552734375,1.312255859375,-0.32806396484375,0.72479248046875,0.79345703125,-0.19073486328125,-28555,-28779
17.27315,5.4440945933764056,3.678816129378049,32.38050842285156,32.51451873779297,-9.759692307692308,-0.539010989010989,-0.9486593406593408,-9.752505494505495,-0.6180659340659341,-1.3798681318681318,0.45013427734375,-0.19073486328125,-1.47247314453125,-0.2288818359375,-0.37384033203125,0.274658203125,-28582,-28755
17.353176,5.9809561806190885,3.81267804530394,32.37823867797852,32.50768280029297,-9.723758241758242,-0.7546153846153847,-0.8192967032967032,-9.766879120879121,-0.44558241758241757,-0.5677582417582419,-0.95367431640625,0.84686279296875,-0.06103515625,0.213623046875,0.58746337890625,-0.74005126953125,-28565,-28727
17.393188,6.169323723190246,3.4904937048453775,32.37369918823242,32.51907730102539,-9.65189010989011,-0.5174505494505495,-0.9917802197802198,-9.781252747252747,-0.43839560439560443,-0.9055384615384616,-0.9613037109375,-0.2593994140625,1.36566162109375,-0.1373291015625,1.2969970703125,-0.60272216796875,-28547,-28734
17.433201,5.5333508331389964,3.7680572151617895,32.37596893310547,32.50996398925781,-9.67345054945055,-0.6827472527472528,-0.804923076923077,-9.702197802197803,-0.4024615384615385,-1.2433186813186814,0.091552734375,0.2593994140625,1.45721435546875,-0.46539306640625,0.83160400390625,-0.4425048828125,-28532,-28767
17.473214,6.026242839148011,3.7234365765198305,32.37596893310547,32.51224136352539,-9.788439560439562,-0.6396263736263736,-0.9270989010989011,-9.85312087912088,-0.4743296703296704,-0.4958901098901099,-0.60272216796875,-1.01470947265625,0.5950927734375,-0.48065185546875,-0.79345703125,-0.32806396484375,-28575,-28713
17.733429,5.927137509614511,3.6584745185007392,32.37596893310547,32.50540542602539,-9.702197802197803,-0.7043076923076923,-0.9055384615384616,-9.795626373626375,-0.3737142857142858,-0.32340659340659345,0.091552734375,-0.22125244140625,0.99945068359375,0.9307861328125,-0.20599365234375,-0.02288818359375,-28555,-28736
17.773442,5.927137509614511,3.360572905618895,32.37596893310547,32.50540542602539,-9.33567032967033,-0.7402417582417582,2.005120879120879,-9.709384615384616,-0.43120879120879124,0.05030769230769231,0.091552734375,0.0762939453125,0.69427490234375,0.244140625,-0.17547607421875,0.32806396484375,-28541,-28824
18.093545,6.026242839148011,3.425533102291652,32.37596893310547,32.51224136352539,-9.845934065934067,-0.7186813186813188,-4.290527472527473,-9.788439560439562,-0.20841758241758243,-2.2063516483516485,-1.068115234375,-0.457763671875,-0.701904296875,-0.3662109375,0.31280517578125,-0.396728515625,-28524,-28764
18.173571,6.124692777399176,3.952447473268691,32.37596893310547,32.525917053222656,-9.910615384615385,-0.5102637362637363,0.459956043956044,-9.932175824175824,-0.32340659340659345,-1.9763736263736265,1.3275146484375,0.19073486328125,0.64849853515625,-0.23651123046875,0.17547607421875,-0.4425048828125,-28580,-28797
18.239992,6.0439637592314455,3.5108349870717745,32.385047912597656,32.528194427490234,-9.889054945054946,-0.7043076923076923,-4.362395604395604,-9.716571428571429,-0.8696043956043957,-0.6468131868131869,0.49591064453125,0.823974609375,31.5399169921875,0.05340576171875,-0.6866455078125,-0.54168701171875,-28591,-28803
18.280005,5.11267187907562,3.5108349870717745,32.3873176574707,32.528194427490234,-9.637516483516483,-0.539010989010989,2.148857142857143,-9.723758241758242,-0.5102637362637363,-2.501010989010989,-0.9918212890625,0.2288818359375,0.16021728515625,-0.0457763671875,0.70953369140625,0.0152587890625,-28557,-28710
18.440057,5.534007131859525,3.4314385948427315,32.400936126708984,32.53731155395508,-10.075912087912087,-0.5965054945054945,-3.3059340659340664,-9.802813186813188,-0.4527692307692308,-0.42402197802197805,0.95367431640625,-0.67901611328125,0.00762939453125,1.06048583984375,1.0833740234375,0.6256103515625,-28528,-28730
18.560096,5.776184187341386,3.485900517592981,32.39866638183594,32.539588928222656,-9.723758241758242,-0.7689890109890111,-1.0492747252747252,-9.781252747252747,-0.5102637362637363,-1.264879120879121,-0.274658203125,0.95367431640625,-1.31988525390625,0.3662109375,-0.091552734375,0.20599365234375,-28563,-28841
18.600109,6.106971719712206,3.6945645006221923,32.3918571472168,32.54414749145508,-9.824373626373626,-0.7546153846153847,-1.0277142857142858,-9.67345054945055,-0.5461978021978022,-0.539010989010989,-0.54931640625,-0.8544921875,-0.23651123046875,0.28228759765625,-0.3814697265625,-0.9307861328125,-28558,-28730
18.680134,5.534007131859525,4.081719461884575,32.400936126708984,32.539588928222656,-9.824373626373626,-0.8121098901098901,-1.0636483516483517,-9.795626373626375,-0.7258681318681319,-1.5020439560439562,0.5645751953125,0.3509521484375,-0.0152587890625,-0.84686279296875,-1.24359130859375,0.1068115234375,-28562,-28795
19.120721,5.6324524088554995,3.9478540819266073,32.400936126708984,32.54642868041992,-9.73813186813187,-0.6827472527472528,-0.9558461538461539,-9.702197802197803,-0.41683516483516486,-0.9342857142857143,0.396728515625,-0.885009765625,0.40435791015625,-0.96893310546875,0.518798828125,-0.34332275390625,-28605,-28760
19.160733,5.919261629907325,3.640101484814892,32.39639663696289,32.5418701171875,-9.687824175824177,-0.6180659340659341,-0.8767912087912089,-9.817186813186813,-0.6108791208791209,-1.3583076923076924,0.7781982421875,-0.23651123046875,0.19073486328125,-0.8087158203125,-0.03814697265625,-0.26702880859375,-28576,-28774
19.240758,5.6324524088554995,3.8487685627154065,32.400936126708984,32.54642868041992,-9.867494505494506,-0.804923076923077,-1.3439340659340662,-9.702197802197803,-0.4024615384615385,-0.574945054945055,0.335693359375,-1.51824951171875,-0.31280517578125,-0.00762939453125,1.2359619140625,0.946044921875,-28603,-28821
19.28077,5.578635541919468,4.047596750368186,32.39866638183594,32.54642868041992,-9.666263736263737,-0.6899340659340659,1.8757582417582417,-9.960923076923077,-0.7114945054945055,-2.156043956043956,0.06866455078125,-0.02288818359375,0.6561279296875,-0.63323974609375,0.05340576171875,0.58746337890625,-28636,-28765
19.320782,6.268431361484588,3.5410188985537445,32.39866638183594,32.5418701171875,-9.69501098901099,-0.7761758241758242,-2.8387912087912093,-9.745318681318683,-0.6683736263736263,0.5030769230769231,-0.08392333984375,0.335693359375,-0.885009765625,-0.48065185546875,-0.6103515625,-0.34332275390625,-28596,-28784
19.360794,5.78537258779113,3.6053240456620017,32.40320587158203,32.5487060546875,-9.580021978021978,-1.1283296703296704,-1.4014285714285715,-9.910615384615385,-0.5461978021978022,-1.9332527472527472,-0.74005126953125,-0.32806396484375,0.06103515625,-0.1983642578125,0.41961669921875,0.8697509765625,-28568,-28774
19.439506,5.534007131859525,3.893389739255838,32.400936126708984,32.54414749145508,-10.119032967032968,-0.654,-3.6724615384615387,-9.623142857142858,-0.804923076923077,0.8264835164835166,-0.08392333984375,-0.06866455078125,1.12152099609375,0.6866455078125,-0.05340576171875,-0.091552734375,-28543,-28764
19.519532,5.2478648193372095,3.7496839878200916,32.40547561645508,32.54642868041992,-9.63032967032967,-0.6396263736263736,2.306967032967033,-9.730945054945055,-0.7330549450549451,0.7330549450549451,-0.213623046875,0.244140625,-0.64849853515625,0.09918212890625,0.885009765625,0.2593994140625,-28550,-28739
19.759608,5.991457417203478,3.7798685927384383,32.407745361328125,32.56010437011719,-9.594395604395604,-0.8192967032967032,2.4219560439560444,-9.781252747252747,-0.5965054945054945,-1.1786373626373627,0.43487548828125,1.312255859375,-0.26702880859375,-0.8087158203125,0.5035400390625,-0.09918212890625,-28566,-28811
19.79962,6.045276421180162,3.372383820282849,32.41001510620117,32.555545806884766,-9.781252747252747,-0.6180659340659341,1.617032967032967,-9.81,-0.5174505494505495,-3.2556263736263737,0.20599365234375,0.0,0.12969970703125,-0.06103515625,1.12152099609375,0.0762939453125,-28559,-28808
19.839633,5.650828963811861,3.8691105459181045,32.41001510620117,32.555545806884766,-9.60876923076923,-0.7977362637362638,-2.7238021978021982,-9.881868131868131,-0.3305934065934066,-1.113956043956044,0.45013427734375,0.1373291015625,1.3427734375,-0.1068115234375,-0.45013427734375,0.274658203125,-28575,-28756
19.879646,5.597012001745853,3.968196258996784,32.407745361328125,32.555545806884766,-9.49378021978022,-0.9055384615384616,-1.264879120879121,-9.781252747252747,-0.5677582417582419,0.5461978021978022,1.007080078125,0.43487548828125,-0.64849853515625,-0.30517578125,0.16021728515625,0.701904296875,-28559,-28765
19.919659,5.409311119201831,3.968196258996784,32.41228485107422,32.555545806884766,-10.162153846153847,-0.4096483516483516,-2.005120879120879,-9.910615384615385,-0.30903296703296707,-2.45789010989011,0.03814697265625,-1.04522705078125,-0.58746337890625,0.46539306640625,-0.67138671875,0.030517578125,-28577,-28736
19.959672,6.089907026040862,4.167026730639904,32.407745361328125,32.555545806884766,-10.119032967032968,-0.5318241758241758,-3.492791208791209,-9.788439560439562,-0.5821318681318681,-0.19404395604395605,0.48828125,0.64849853515625,0.29754638671875,-1.02996826171875,0.3662109375,-0.37384033203125,-28565,-28763
20.140329,5.418499195410405,3.2936446426432866,32.41682434082031,32.564659118652344,-9.788439560439562,-0.7689890109890111,-1.0708351648351648,-9.659076923076924,-0.41683516483516486,-0.25153846153846154,-0.38909912109375,-1.09100341796875,0.54931640625,0.1220703125,0.46539306640625,-0.12969970703125,-28528,-28767
20.180342,5.570759926222664,3.923574761394562,32.41909408569336,32.557823181152344,-9.702197802197803,-0.7618021978021978,-0.8767912087912089,-9.838747252747254,-0.6611868131868132,-1.1427032967032968,-0.52642822265625,-0.4425048828125,-0.0457763671875,0.03814697265625,0.3662109375,0.11444091796875,-28545,-28846
20.220355,5.660017253466123,3.69062740557429,32.414554595947266,32.564659118652344,-9.774065934065934,-0.7689890109890111,-0.9702197802197802,-9.81,-0.43839560439560443,-0.43839560439560443,0.6866455078125,-0.457763671875,-0.38909912109375,-0.213623046875,0.46539306640625,0.885009765625,-28511,-28774
20.260367,5.956015786244748,3.69062740557429,32.414554595947266,32.564659118652344,-9.730945054945055,-0.7474285714285716,-0.9917802197802198,-9.709384615384616,-0.4743296703296704,-0.8696043956043957,0.2899169921875,-0.08392333984375,-0.42724609375,0.3814697265625,0.80108642578125,0.46539306640625,-28576,-28745
20.300379,5.37387147275787,3.3586044211457846,32.41909408569336,32.57149887084961,-9.659076923076924,-0.7330549450549451,-0.8192967032967032,-9.723758241758242,-0.6468131868131869,-1.2145714285714286,1.12152099609375,-0.05340576171875,0.84686279296875,-0.1373291015625,-0.1678466796875,0.030517578125,-28512,-28784
20.380402,5.767652108482935,4.187369336550404,32.41909408569336,32.564659118652344,-10.10465934065934,-0.574945054945055,-2.6806813186813185,-9.982483516483516,-0.5677582417582419,-0.9486593406593408,0.03814697265625,-0.79345703125,-0.03814697265625,-0.3204345703125,0.49591064453125,0.152587890625,-28544,-28840
20.540449,5.579948145118806,3.5915443377967335,32.42363357543945,32.564659118652344,-9.558461538461538,-0.7689890109890111,2.335714285714286,-9.92498901098901,-0.4096483516483516,-2.95378021978022,-0.92315673828125,-0.244140625,-0.457763671875,-0.25177001953125,-0.4425048828125,-0.23651123046875,-28585,-28783
20.580461,5.526131549969321,3.392724871424477,32.421363830566406,32.564659118652344,-9.759692307692308,-0.8911648351648351,-3.8952527472527474,-9.766879120879121,-0.4743296703296704,-0.7546153846153847,-0.11444091796875,-0.81634521484375,0.7171630859375,0.38909912109375,-0.25177001953125,0.98419189453125,-28590,-28837
20.720319,6.009834606748413,3.502304767098849,32.41682434082031,32.569217681884766,-9.975296703296703,-0.7618021978021978,-4.304901098901099,-9.687824175824177,-0.7618021978021978,-1.6026593406593408,0.54931640625,-0.26702880859375,-0.1678466796875,0.579833984375,-0.46539306640625,-0.19073486328125,-28544,-28819
20.760331,5.713834541677954,4.043003316985647,32.41682434082031,32.56694030761719,-9.371604395604397,-0.6755604395604397,2.7597362637362637,-9.824373626373626,-0.5461978021978022,-2.4003956043956043,0.244140625,-0.72479248046875,-0.1678466796875,0.43487548828125,0.1373291015625,-0.63323974609375,-28556,-28845
20.800344,5.624576752392926,3.6361644103885595,32.421363830566406,32.562381744384766,-9.802813186813188,-0.5893186813186814,1.193010989010989,-9.63032967032967,-0.6468131868131869,-0.6899340659340659,1.03759765625,-0.06866455078125,1.39617919921875,0.3814697265625,-0.42724609375,-0.213623046875,-28569,-28782
20.841763,5.767652108482935,3.834332340715278,32.41909408569336,32.562381744384766,-9.960923076923077,-0.6755604395604397,-0.5318241758241758,-9.946549450549451,-0.5461978021978022,-2.659120879120879,0.38909912109375,0.030517578125,1.04522705078125,0.34332275390625,-0.48065185546875,0.14495849609375,-28607,-28791
20.881775,5.570759926222664,3.6460070992449403,32.41909408569336,32.56694030761719,-9.393164835164836,-1.0205274725274727,0.39527472527472535,-9.81,-0.4024615384615385,-2.3932087912087914,-0.67901611328125,-0.8697509765625,-0.69427490234375,1.22833251953125,-0.67901611328125,-0.23651123046875,-28566,-28784
20.961799,5.678393857146503,3.491806044432991,32.42363357543945,32.564659118652344,-10.025604395604395,-0.6683736263736263,-4.082109890109891,-9.601582417582417,-0.5677582417582419,0.7761758241758242,0.06866455078125,-0.63323974609375,1.02996826171875,-0.26702880859375,-0.6256103515625,-0.23651123046875,-28600,-28789
21.081836,5.427687279734741,3.392724871424477,32.421363830566406,32.564659118652344,-9.85312087912088,-0.5318241758241758,0.7833626373626373,-9.67345054945055,-0.6755604395604397,0.48870329670329676,-0.762939453125,-0.42724609375,0.32806396484375,0.05340576171875,0.762939453125,0.8544921875,-28512,-28735
21.121848,5.624576752392926,3.69062740557429,32.421363830566406,32.564659118652344,-9.443472527472528,-0.804923076923077,-1.926065934065934,-9.774065934065934,-0.6755604395604397,-2.1632307692307693,-0.5340576171875,-0.4119873046875,-0.6103515625,0.518798828125,0.03814697265625,0.06866455078125,-28575,-28724
21.441744,5.535319729418703,4.043003316985647,32.4259033203125,32.56694030761719,-9.407538461538463,-0.919912087912088,1.1570769230769231,-9.85312087912088,-0.2730989010989011,-2.673494505494505,-0.30517578125,-0.9765625,0.46539306640625,0.7476806640625,0.091552734375,-0.335693359375,-28512,-28817
21.481757,6.225112674876641,3.392724871424477,32.4259033203125,32.564659118652344,-10.119032967032968,-0.459956043956044,-3.5143516483516484,-9.709384615384616,-0.39527472527472535,-0.12217582417582419,-0.1983642578125,-0.80108642578125,0.45013427734375,0.823974609375,0.17547607421875,0.2288818359375,-28562,-28771
21.521769,5.140891619479689,3.4032234940387553,32.4259033203125,32.569217681884766,-9.996857142857143,-0.5533846153846155,-4.290527472527473,-9.759692307692308,-0.6827472527472528,0.9917802197802198,0.1678466796875,0.58746337890625,-0.3509521484375,-0.37384033203125,0.37384033203125,-0.60272216796875,-28572,-28791
21.561781,5.140891619479689,3.491806044432991,32.4259033203125,32.564659118652344,-9.529714285714286,-0.7905494505494507,2.29978021978022,-9.65189010989011,-0.7043076923076923,-1.0277142857142858,-0.58746337890625,0.83160400390625,0.1068115234375,0.14495849609375,-0.78582763671875,1.40380859375,-28565,-28740
21.601794,5.29314828460673,3.5915443377967335,32.42817306518555,32.564659118652344,-9.759692307692308,-0.6755604395604397,1.3511208791208793,-9.65189010989011,-0.7043076923076923,0.4815164835164835,-0.61798095703125,-0.43487548828125,-0.02288818359375,0.2288818359375,-1.07574462890625,0.06866455078125,-28533,-28739
21.641807,5.579948145118806,3.4471865913794346,32.42363357543945,32.56694030761719,-9.687824175824177,-0.9845934065934067,-2.6088131868131867,-9.601582417582417,-0.5246373626373626,0.459956043956044,-0.3662109375,0.1068115234375,-0.091552734375,-0.26702880859375,-0.34332275390625,-1.33514404296875,-28572,-28740
21.68182,5.535319729418703,3.5915443377967335,32.4259033203125,32.564659118652344,-9.795626373626375,-0.6683736263736263,-1.1283296703296704,-9.81,-0.654,-0.9414725274725276,-0.030517578125,0.37384033203125,0.457763671875,-0.579833984375,0.41961669921875,0.42724609375,-28543,-28759
21.761846,5.481503365289996,4.087625327169533,32.42363357543945,32.564659118652344,-9.723758241758242,-0.6683736263736263,-1.0852087912087913,-9.766879120879121,-0.7330549450549451,-0.804923076923077,0.49591064453125,0.61798095703125,0.19073486328125,-0.091552734375,-0.396728515625,-0.396728515625,-28522,-28776
21.973573,5.633765018846688,3.6460070992449403,32.4259033203125,32.56694030761719,-9.745318681318683,-0.7043076923076923,-1.0277142857142858,-9.817186813186813,-0.7258681318681319,-1.5595384615384615,-0.28228759765625,-1.47247314453125,-0.274658203125,-15.78521728515625,1.373291015625,0.1983642578125,-28581,-28732
22.013586,5.490691505297519,3.7798685927384383,32.42817306518555,32.56010437011719,-9.73813186813187,-0.5821318681318681,-0.8911648351648351,-9.81,-0.6683736263736263,-1.106769230769231,-0.1220703125,0.3204345703125,-0.3509521484375,0.35858154296875,-0.3814697265625,-0.4119873046875,-28543,-28823
22.173637,5.5983246072632795,3.4032234940387553,32.43271255493164,32.569217681884766,-9.845934065934067,-0.7905494505494507,-0.9414725274725276,-9.702197802197803,-0.6108791208791209,-0.5893186813186814,-0.11444091796875,-0.48828125,-0.67138671875,0.946044921875,0.8697509765625,0.3204345703125,-28540,-28807
22.253663,5.544507916988749,3.800210441133075,32.430442810058594,32.569217681884766,-9.774065934065934,-0.5677582417582419,-0.7689890109890111,-9.766879120879121,-0.7402417582417582,-1.5451648351648353,-0.12969970703125,-1.0223388671875,0.28228759765625,-0.14495849609375,-0.31280517578125,-0.18310546875,-28605,-28765
22.293676,5.884476565917026,3.7450906860613173,32.42817306518555,32.56694030761719,-9.723758241758242,-0.8336703296703297,-1.0636483516483517,-9.774065934065934,-0.6108791208791209,-1.0205274725274727,-0.2899169921875,-0.79345703125,1.1444091796875,0.1068115234375,-0.30517578125,0.00762939453125,-28579,-28761
22.333689,5.741399602067105,3.789711417638202,32.430442810058594,32.564659118652344,-9.723758241758242,-0.7043076923076923,-0.8552307692307692,-9.759692307692308,-0.48870329670329676,-0.42402197802197805,-0.11444091796875,0.396728515625,0.09918212890625,-0.26702880859375,-1.02996826171875,-0.67138671875,-28515,-28829
22.373702,6.135194159171306,4.098124651513103,32.430442810058594,32.569217681884766,-9.680637362637363,-0.7186813186813188,-1.0133406593406593,-9.795626373626375,-0.41683516483516486,-1.0995824175824176,-0.8392333984375,-0.3509521484375,0.7781982421875,-0.55694580078125,0.0,1.0223388671875,-28514,-28714
22.441512,5.8398468429464145,3.3139855397431717,32.430442810058594,32.57377624511719,-9.766879120879121,-0.8336703296703297,-1.1211428571428572,-9.759692307692308,-0.574945054945055,-1.1355164835164837,0.18310546875,0.28228759765625,-0.37384033203125,-0.244140625,0.5340576171875,-0.030517578125,-28587,-28784
22.481524,5.849035299660102,3.512147329228469,32.43498229980469,32.57377624511719,-9.702197802197803,-0.7402417582417582,-1.0205274725274727,-9.795626373626375,-0.6252527472527473,-0.5605714285714286,-0.0152587890625,-0.0152587890625,-0.12969970703125,-1.0223388671875,0.091552734375,0.31280517578125,-28537,-28758
22.521535,5.499879653430639,4.043003316985647,32.43271255493164,32.56694030761719,-9.860307692307693,-0.7186813186813188,-1.1283296703296704,-9.802813186813188,-0.6396263736263736,-1.3151868131868132,0.20599365234375,-0.5340576171875,0.1220703125,0.96893310546875,0.42724609375,0.5645751953125,-28536,-28776
22.561547,5.696770493304641,3.546924456705071,32.43271255493164,32.56694030761719,-9.774065934065934,-0.7402417582417582,-1.106769230769231,-9.745318681318683,-0.6036923076923078,-1.2073846153846155,0.1983642578125,0.41961669921875,0.091552734375,0.030517578125,0.77056884765625,0.1220703125,-28544,-28798
22.681582,5.642953293426032,3.392724871424477,32.430442810058594,32.564659118652344,-9.766879120879121,-0.7114945054945055,-0.8696043956043957,-9.730945054945055,-0.5461978021978022,-1.3870549450549452,0.55694580078125,-0.34332275390625,-0.38909912109375,0.8544921875,-0.19073486328125,0.09918212890625,-28522,-28724
22.761605,5.6521415761211244,3.556767061072023,32.43498229980469,32.57149887084961,-9.745318681318683,-0.8983516483516484,-1.0205274725274727,-9.60876923076923,-0.2874725274725275,-0.36652747252747253,0.518798828125,0.457763671875,0.28228759765625,-0.31280517578125,0.08392333984375,-0.09918212890625,-28546,-28792
22.801617,5.6521415761211244,3.5915443377967335,32.43498229980469,32.564659118652344,-9.759692307692308,-0.7905494505494507,-0.9486593406593408,-9.774065934065934,-0.5965054945054945,-1.2361318681318683,0.17547607421875,-0.0762939453125,-0.579833984375,-0.52642822265625,0.42724609375,-0.16021728515625,-28528,-28775
22.881641,5.813594154228909,3.800210441133075,32.44179153442383,32.569217681884766,-9.745318681318683,-0.5893186813186814,-0.7402417582417582,-9.781252747252747,-0.6036923076923078,-0.6899340659340659,0.25177001953125,-0.09918212890625,0.3509521484375,0.28228759765625,0.55694580078125,-0.6103515625,-28544,-28771
22.961662,11.039185741626909,3.7004701459846103,32.43952178955078,32.569217681884766,-9.81,-0.6899340659340659,-0.8552307692307692,-9.81,-0.5174505494505495,-1.3654945054945056,-0.4730224609375,-0.38909912109375,-1.2664794921875,0.49591064453125,0.78582763671875,0.54931640625,-28543,-28760
23.099121,5.508411512533897,3.9091384355236727,32.437252044677734,32.57377624511719,-9.587208791208791,-0.804923076923077,-1.0636483516483517,-9.838747252747254,-0.43120879120879124,-1.5595384615384615,0.1678466796875,-0.28228759765625,-0.41961669921875,0.335693359375,-0.6256103515625,-0.98419189453125,-28618,-28778
23.139134,5.365339724061286,3.800210441133075,32.43952178955078,32.569217681884766,-9.709384615384616,-0.5893186813186814,-0.8983516483516484,-9.781252747252747,-0.46714285714285714,-1.1642637362637362,0.8697509765625,-0.4119873046875,0.2288818359375,0.4730224609375,0.87738037109375,0.67138671875,-28549,-28771
23.179147,5.365339724061286,4.251678481553498,32.43952178955078,32.57149887084961,-9.666263736263737,-0.7186813186813188,-0.8264835164835166,-9.623142857142858,-0.43120879120879124,-0.44558241758241757,-0.091552734375,0.38909912109375,-0.06103515625,0.17547607421875,1.0833740234375,-0.42724609375,-28540,-28774
23.21916,6.064310038057371,3.9091384355236727,32.444061279296875,32.57377624511719,-9.73813186813187,-0.6108791208791209,-0.919912087912088,-9.766879120879121,-0.44558241758241757,-0.5318241758241758,-0.2899169921875,-1.12152099609375,-0.946044921875,0.5035400390625,0.9918212890625,0.08392333984375,-28568,-28779
23.259173,5.661329866936882,3.7109690793646593,32.43952178955078,32.57377624511719,-9.687824175824177,-0.6108791208791209,-0.9774065934065935,-9.795626373626375,-0.7043076923076923,-1.228945054945055,0.49591064453125,0.091552734375,0.64849853515625,-0.28228759765625,1.62506103515625,0.1220703125,-28588,-28742
23.299186,5.47297152826512,3.512147329228469,32.444061279296875,32.57377624511719,-9.702197802197803,-0.7618021978021978,-0.8121098901098901,-9.716571428571429,-0.5677582417582419,-1.0277142857142858,0.1220703125,0.579833984375,0.45013427734375,-0.4119873046875,0.80108642578125,-1.16729736328125,-28537,-28827
23.339199,5.508411512533897,3.368446847236953,32.437252044677734,32.57605743408203,-9.69501098901099,-0.5965054945054945,-0.7402417582417582,-9.81,-0.7689890109890111,-0.6324395604395605,-0.6256103515625,-1.24359130859375,0.244140625,-0.213623046875,-0.63323974609375,0.152587890625,-28530,-28869
23.379212,5.715147161945467,4.008880732540533,32.44179153442383,32.57377624511719,-9.716571428571429,-0.804923076923077,-0.9917802197802198,-9.788439560439562,-0.3737142857142858,-0.6108791208791209,-0.90789794921875,-0.5950927734375,0.31280517578125,0.213623046875,-0.0152587890625,0.732421875,-28547,-28878
23.499249,5.8044057288364,3.512147329228469,32.437252044677734,32.57377624511719,-10.090285714285713,-0.7186813186813188,-4.110857142857143,-9.92498901098901,-0.4958901098901099,-2.199164835164835,0.3204345703125,-0.4119873046875,-0.152587890625,-0.3662109375,0.1220703125,0.244140625,-28572,-28732
23.718725,5.517599676322675,3.556767061072023,32.44179153442383,32.57149887084961,-9.795626373626375,-0.8624175824175825,-1.0492747252747252,-9.73813186813187,-0.5533846153846155,-1.0492747252747252,-0.762939453125,-0.9307861328125,-0.3662109375,0.30517578125,0.0,0.35858154296875,-28603,-28757
23.798751,5.6521415761211244,3.7450906860613173,32.43498229980469,32.56694030761719,-9.730945054945055,-0.7258681318681319,-1.1211428571428572,-9.644703296703296,-0.32340659340659345,-0.9342857142857143,-0.16021728515625,-0.42724609375,-1.16729736328125,0.66375732421875,-0.49591064453125,0.93841552734375,-28595,-28830
23.838764,5.867412237449486,4.043003316985647,32.444061279296875,32.56694030761719,-9.702197802197803,-0.7833626373626373,-0.9845934065934067,-9.716571428571429,-0.46714285714285714,-0.4815164835164835,-1.2664794921875,-0.32806396484375,-0.14495849609375,-0.8697509765625,-0.67901611328125,0.5950927734375,-28582,-28790
23.91879,5.607512850516528,3.9786954627360984,32.437252044677734,32.56010437011719,-9.687824175824177,-0.8264835164835166,-0.8480439560439561,-9.709384615384616,-0.46714285714285714,-1.2792527472527473,0.0762939453125,0.030517578125,0.1220703125,-0.19073486328125,0.3509521484375,0.16021728515625,-28549,-28829
23.958803,5.9028535663536985,3.9340739200715404,32.437252044677734,32.562381744384766,-9.522527472527473,-0.7761758241758242,-2.0194945054945057,-9.766879120879121,-0.41683516483516486,-2.184791208791209,0.3814697265625,0.3509521484375,-0.1068115234375,0.0152587890625,-0.42724609375,0.57220458984375,-28558,-28778
23.998816,5.311524239819562,3.7798685927384383,32.437252044677734,32.56010437011719,-9.429098901098902,-0.9342857142857143,-0.17248351648351648,-9.781252747252747,-0.5965054945054945,0.19404395604395605,0.2288818359375,0.14495849609375,0.34332275390625,-0.030517578125,-0.05340576171875,0.885009765625,-28567,-28774
24.038829,5.70595882356227,3.988538475868097,32.437252044677734,32.564659118652344,-10.133406593406596,-0.654,-2.975340659340659,-9.601582417582417,-0.6468131868131869,0.5605714285714286,-0.46539306640625,0.42724609375,0.80108642578125,-0.4119873046875,-1.0528564453125,0.0,-28568,-28784
24.078842,5.867412237449486,3.988538475868097,32.444061279296875,32.564659118652344,-9.982483516483516,-0.5461978021978022,-4.10367032967033,-9.802813186813188,-0.574945054945055,-0.6683736263736263,-0.274658203125,-0.43487548828125,-0.3204345703125,-0.02288818359375,-0.0457763671875,-0.4119873046875,-28568,-28828
24.118855,5.956672111645375,3.889452568917008,32.43952178955078,32.564659118652344,-9.917802197802198,-0.8480439560439561,-4.283340659340659,-9.637516483516483,-0.7546153846153847,0.5102637362637363,0.48828125,0.1220703125,0.02288818359375,-0.14495849609375,1.251220703125,0.57220458984375,-28551,-28824
24.158868,5.616701101890442,3.5915443377967335,32.44179153442383,32.564659118652344,-9.666263736263737,-0.6827472527472528,1.7607692307692309,-9.587208791208791,-0.4815164835164835,-0.5677582417582419,0.0152587890625,-0.35858154296875,-0.12969970703125,-0.1220703125,-0.46539306640625,0.70953369140625,-28553,-28845
24.239762,5.70595882356227,3.536425688981808,32.437252044677734,32.562381744384766,-9.443472527472528,-0.9845934065934067,-1.0492747252747252,-9.623142857142858,-0.654,-0.8983516483516484,-0.244140625,-0.40435791015625,-0.2899169921875,-1.1138916015625,1.03759765625,-0.28228759765625,-28512,-28792
24.279775,5.750587971771495,3.6807846744805772,32.43498229980469,32.56010437011719,-9.443472527472528,-1.0061538461538462,0.6899340659340659,-9.759692307692308,-0.4024615384615385,-2.6088131868131867,-0.52642822265625,-0.80108642578125,-0.29754638671875,-0.99945068359375,-0.244140625,0.46539306640625,-28511,-28785
24.319788,5.7689647355422835,3.5810455250209543,32.444061279296875,32.56010437011719,-10.068725274725274,-0.6827472527472528,-3.5502857142857143,-9.867494505494506,-0.2730989010989011,-1.4373626373626376,-0.08392333984375,-0.16021728515625,-1.01470947265625,-0.54931640625,-0.5950927734375,0.7476806640625,-28552,-28798
24.359801,5.419155486876463,3.69062740557429,32.44179153442383,32.564659118652344,-10.004043956043956,-0.6324395604395605,-4.405516483516484,-9.838747252747254,-0.6036923076923078,-2.0985494505494504,0.6256103515625,-0.74005126953125,-0.335693359375,0.518798828125,0.28228759765625,0.9307861328125,-28549,-28739
24.479839,5.813594154228909,3.536425688981808,32.44179153442383,32.562381744384766,-7.725824175824176,-0.9342857142857143,-2.709428571428572,-9.867494505494506,-0.2659120879120879,-2.0769890109890112,0.16021728515625,0.08392333984375,0.6103515625,0.54931640625,-1.97601318359375,-0.6866455078125,-28551,-28745
24.599877,5.616701101890442,3.3277648797371455,32.44179153442383,32.557823181152344,-10.176527472527473,-0.7546153846153847,-3.852131868131868,-9.845934065934067,-0.4743296703296704,-1.2576923076923077,0.640869140625,0.4119873046875,0.9918212890625,0.030517578125,-0.22125244140625,0.030517578125,-28552,-28761
24.639889,5.463783403918171,3.149947180640652,32.43952178955078,32.56694030761719,-9.400351648351648,-0.8264835164835166,2.342901098901099,-9.69501098901099,-0.7977362637362638,0.9342857142857143,-0.40435791015625,-1.4190673828125,0.3814697265625,-0.38909912109375,-1.0833740234375,0.26702880859375,-28540,-28750
24.679902,5.562884316495783,3.943916890961276,32.43952178955078,32.56694030761719,-9.587208791208791,-0.8121098901098901,2.5225714285714282,-9.63032967032967,-0.6036923076923078,-0.014373626373626375,0.18310546875,-0.6256103515625,-0.16021728515625,-0.48065185546875,-0.1373291015625,0.49591064453125,-28587,-28740
24.719915,5.965860671614621,3.249026040015906,32.444061279296875,32.56694030761719,-9.716571428571429,-0.5893186813186814,-0.6899340659340659,-9.802813186813188,-0.5246373626373626,-1.1355164835164837,0.23651123046875,-0.457763671875,0.61798095703125,-0.1983642578125,-0.1068115234375,0.244140625,-28552,-28840
24.759927,5.2668969763638955,3.5915443377967335,32.43952178955078,32.564659118652344,-9.745318681318683,-0.6252527472527473,-0.9414725274725276,-9.637516483516483,-0.4527692307692308,-1.0995824175824176,0.14495849609375,0.9765625,0.57220458984375,-0.6103515625,0.06866455078125,-0.02288818359375,-28551,-28778
24.839146,5.867412237449486,3.7798685927384383,32.444061279296875,32.56010437011719,-9.781252747252747,-0.6755604395604397,-0.8552307692307692,-9.723758241758242,-0.36652747252747253,-0.3809010989010989,-0.244140625,-0.96893310546875,-0.12969970703125,-0.1068115234375,-0.152587890625,-0.16021728515625,-28546,-28732
24.919172,5.320712229604524,3.834332340715278,32.44179153442383,32.562381744384766,-9.716571428571429,-0.7977362637362638,-0.9127252747252748,-9.702197802197803,-0.6108791208791209,-1.4301758241758245,-0.8544921875,-0.38909912109375,0.78582763671875,0.00762939453125,0.17547607421875,-0.81634521484375,-28553,-28795
24.959185,5.965860671614621,3.834332340715278,32.444061279296875,32.562381744384766,-9.781252747252747,-0.804923076923077,-0.998967032967033,-9.766879120879121,-0.41683516483516486,-0.7330549450549451,0.2288818359375,0.213623046875,-1.42669677734375,0.34332275390625,0.80108642578125,-0.09918212890625,-28575,-28720
25.039211,5.7689647355422835,3.889452568917008,32.444061279296875,32.564659118652344,-9.723758241758242,-0.6611868131868132,-0.9774065934065935,-9.817186813186813,-0.7330549450549451,-0.6683736263736263,0.03814697265625,0.14495849609375,0.02288818359375,-0.09918212890625,-0.40435791015625,-0.08392333984375,-28528,-28700
25.239276,5.374527761408771,4.176869922077216,32.444061279296875,32.56010437011719,-9.788439560439562,-0.8336703296703297,-1.0564615384615386,-9.766879120879121,-0.43120879120879124,-1.1211428571428572,0.34332275390625,0.7476806640625,-0.77056884765625,0.091552734375,-0.2288818359375,0.0,-28639,-28750
29.337403,5.993426400246392,3.3782892826447295,32.45767974853516,32.58061599731445,-10.075912087912087,-0.6468131868131869,-3.981494505494506,-9.723758241758242,-0.48870329670329676,-1.4732967032967033,-0.03814697265625,0.66375732421875,0.3204345703125,0.09918212890625,0.5035400390625,0.3509521484375,-28570,-28789
34.240169,5.8326273469413366,3.4130659623672415,32.47583770751953,32.57377624511719,-10.10465934065934,-0.48870329670329676,-2.213538461538462,-9.716571428571429,-0.4527692307692308,1.1858241758241759,-0.2899169921875,0.75531005859375,0.54168701171875,0.0762939453125,-0.30517578125,-0.32806396484375,-28548,-28821
34.320195,5.385028385463258,3.9196375796228153,32.473567962646484,32.57833480834961,-9.479406593406594,-0.8480439560439561,1.9763736263736265,-9.889054945054946,-0.7905494505494507,0.10780219780219781,-0.57220458984375,0.3509521484375,-1.18255615234375,0.03814697265625,-0.732421875,-0.70953369140625,-28556,-28861
34.440288,5.6265456659475035,3.6217284835969537,32.47129821777344,32.57833480834961,-9.730945054945055,-0.8767912087912089,-3.2484395604395604,-9.730945054945055,-0.6611868131868132,0.4815164835164835,-0.06866455078125,0.091552734375,-0.3509521484375,-0.69427490234375,0.9002685546875,0.579833984375,-28544,-28741
34.480301,5.6265456659475035,3.556767061072023,32.47129821777344,32.57149887084961,-9.92498901098901,-0.5030769230769231,0.574945054945055,-9.881868131868131,-0.8696043956043957,-1.9835604395604396,-0.34332275390625,0.55694580078125,-0.66375732421875,0.66375732421875,0.823974609375,-1.3275146484375,-28540,-28758
34.520314,5.483472251751053,3.676191403157091,32.473567962646484,32.58061599731445,-10.018417582417582,-0.3593406593406594,-1.1283296703296704,-9.889054945054946,-0.4743296703296704,-2.4794505494505494,-0.23651123046875,0.5950927734375,0.22125244140625,0.95367431640625,-0.1678466796875,-1.54876708984375,-28555,-28727
34.560327,6.084000023217271,3.368446847236953,32.47810745239258,32.57605743408203,-9.680637362637363,-0.6180659340659341,-0.7618021978021978,-9.716571428571429,-0.5030769230769231,-0.3593406593406594,0.5035400390625,0.152587890625,-0.34332275390625,0.05340576171875,-0.3662109375,0.579833984375,-28540,-28755
34.60034,5.8326273469413366,3.5771084729584572,32.47583770751953,32.58061599731445,-9.623142857142858,-0.6827472527472528,-0.998967032967033,-9.781252747252747,-0.5965054945054945,-0.883978021978022,-0.12969970703125,-0.640869140625,-0.63323974609375,-0.3814697265625,0.84686279296875,1.0833740234375,-28532,-28809
34.640353,5.7433685377492765,4.12831026807018,32.480377197265625,32.58289337158203,-9.795626373626375,-0.9702197802197802,-1.042087912087912,-9.788439560439562,-0.6971208791208792,-1.5810989010989014,0.26702880859375,-0.6561279296875,0.18310546875,-0.7171630859375,-0.19073486328125,0.03814697265625,-28568,-28818
34.760391,5.886445528692718,4.282520763663939,32.47810745239258,32.585174560546875,-9.881868131868131,-0.8264835164835166,-1.034901098901099,-9.730945054945055,-0.5677582417582419,-0.919912087912088,0.213623046875,0.30517578125,-0.03814697265625,-0.3204345703125,0.2593994140625,-1.129150390625,-28557,-28818
34.800404,5.752556909195917,4.1827758414113845,32.48491287231445,32.585174560546875,-9.702197802197803,-0.804923076923077,-0.8696043956043957,-9.601582417582417,-0.5030769230769231,-1.4086153846153846,-0.48828125,-1.373291015625,-0.37384033203125,-0.81634521484375,-1.19781494140625,-1.220703125,-28553,-28824
34.840416,5.403404503074725,3.8303951927402693,32.48264694213867,32.58289337158203,-9.716571428571429,-0.7330549450549451,-1.0564615384615386,-9.817186813186813,-0.5965054945054945,-1.2792527472527473,-0.6866455078125,-0.46539306640625,-1.251220703125,0.40435791015625,0.55694580078125,-1.10626220703125,-28538,-28806
34.881734,5.600293515847028,3.5324886538152214,32.48264694213867,32.58289337158203,-9.709384615384616,-0.7977362637362638,-0.8983516483516484,-9.730945054945055,-0.3305934065934066,-0.574945054945055,0.213623046875,-0.2593994140625,-0.0762939453125,-0.3814697265625,-0.86212158203125,-0.67138671875,-28633,-28791
34.921745,5.394216440208652,3.7956171170498436,32.47810745239258,32.58972930908203,-9.587208791208791,-0.6899340659340659,-0.998967032967033,-9.759692307692308,-0.43839560439560443,-0.998967032967033,-0.8544921875,-0.6866455078125,1.007080078125,-0.37384033203125,0.9613037109375,0.28228759765625,-28563,-28775
34.961757,5.1428604414380175,3.487869026167246,32.47583770751953,32.585174560546875,-9.659076923076924,-0.6611868131868132,-0.8121098901098901,-9.709384615384616,-0.5461978021978022,-1.2145714285714286,-0.2899169921875,-1.54876708984375,-0.96893310546875,0.1373291015625,-0.52642822265625,-0.4425048828125,-28550,-28717
35.099483,5.841815797271678,4.039066089989134,32.480377197265625,32.58745193481445,-9.723758241758242,-0.6036923076923078,-0.8408571428571429,-9.637516483516483,-0.34496703296703296,-1.0277142857142858,-0.08392333984375,-0.335693359375,0.6561279296875,0.2593994140625,-0.0457763671875,0.091552734375,-28577,-28813
35.139496,5.7433685377492765,3.840238065473244,32.480377197265625,32.58745193481445,-9.795626373626375,-0.7258681318681319,-1.0923956043956045,-9.644703296703296,-0.4024615384615385,-0.7977362637362638,0.90789794921875,0.701904296875,-0.54168701171875,0.6866455078125,0.87738037109375,1.18255615234375,-28529,-28764
35.259535,5.644922210460194,3.9944442882210325,32.480377197265625,32.58972930908203,-9.73813186813187,-0.6971208791208792,-1.034901098901099,-9.759692307692308,-0.5965054945054945,-1.3511208791208793,0.030517578125,0.17547607421875,-0.89263916015625,0.732421875,0.26702880859375,-0.213623046875,-28544,-28760
35.379573,5.689551096652281,3.9944442882210325,32.47810745239258,32.58972930908203,-9.407538461538463,-1.0708351648351648,1.3798681318681318,-9.802813186813188,-0.3593406593406594,-2.6950549450549453,-0.72479248046875,0.3662109375,1.35040283203125,-1.02996826171875,-0.6256103515625,-0.67901611328125,-28583,-28754
35.419586,5.7433685377492765,3.6965330487022925,32.480377197265625,32.58972930908203,-9.393164835164836,-0.8336703296703297,2.1416703296703297,-9.745318681318683,-0.6324395604395605,-2.1416703296703297,0.00762939453125,1.190185546875,-0.3204345703125,0.0152587890625,-0.57220458984375,0.11444091796875,-28545,-28780
35.499612,5.492660393500842,3.6072925768461914,32.47810745239258,32.59428787231445,-9.788439560439562,-0.8264835164835166,-4.161164835164835,-9.774065934065934,-0.4096483516483516,-1.5882857142857145,-0.091552734375,-0.335693359375,0.08392333984375,1.02996826171875,1.6021728515625,0.152587890625,-28563,-28787
35.579638,5.7879978465509225,3.6420700225841927,32.47810745239258,32.58745193481445,-9.81,-0.7689890109890111,-0.9917802197802198,-9.795626373626375,-0.4958901098901099,-1.2433186813186814,0.12969970703125,-0.1983642578125,1.5106201171875,0.79345703125,0.5950927734375,0.9002685546875,-28549,-28782
35.652835,5.886445528692718,3.731310792951234,32.47810745239258,32.58289337158203,-9.63032967032967,-0.6252527472527473,-0.7618021978021978,-9.615956043956045,-0.5533846153846155,-0.7330549450549451,-0.11444091796875,0.26702880859375,-0.0152587890625,-0.46539306640625,-0.152587890625,0.5340576171875,-28564,-28747
35.692849,5.4388442501953165,3.4334070931062115,32.47583770751953,32.58289337158203,-9.759692307692308,-0.7043076923076923,-0.9774065934065935,-9.73813186813187,-0.539010989010989,-0.7618021978021978,-0.4119873046875,0.1983642578125,0.55694580078125,-0.2899169921875,0.3204345703125,0.74005126953125,-28540,-28791
35.732861,6.173261757022161,3.865173384767928,32.473567962646484,32.57605743408203,-9.752505494505495,-0.9055384615384616,-1.2505054945054945,-9.781252747252747,-0.5174505494505495,-1.1355164835164837,-0.32806396484375,0.0457763671875,-0.06103515625,0.7171630859375,-1.28173828125,-0.64849853515625,-28558,-28853
35.772874,5.734180174428218,2.871744040471569,32.47583770751953,32.57605743408203,-9.730945054945055,-0.7402417582417582,-0.8552307692307692,-9.752505494505495,-0.5174505494505495,-1.0708351648351648,-0.2899169921875,-0.23651123046875,-0.4425048828125,-0.457763671875,0.05340576171875,0.3509521484375,-28560,-28792
35.812885,5.877257038915602,4.06334568023081,32.473567962646484,32.57605743408203,-9.421912087912089,-0.8696043956043957,1.2361318681318683,-9.421912087912089,-0.7977362637362638,0.3809010989010989,0.030517578125,0.77056884765625,1.2054443359375,-0.45013427734375,-0.8544921875,0.23651123046875,-28563,-28808
35.852898,5.5372886260724385,3.7109690793646593,32.47583770751953,32.57377624511719,-9.759692307692308,-0.5533846153846155,-3.6580879120879124,-9.580021978021978,-0.4743296703296704,-2.335714285714286,-0.80108642578125,0.09918212890625,-0.9918212890625,0.518798828125,1.434326171875,0.38909912109375,-28548,-28792
35.892911,5.600293515847028,3.7109690793646593,32.48264694213867,32.57377624511719,-9.206307692307693,-1.1427032967032968,-4.312087912087912,-9.242241758241759,-0.7761758241758242,0.42402197802197805,0.05340576171875,0.40435791015625,0.2593994140625,-0.42724609375,-0.9765625,0.00762939453125,-28539,-28818
35.972937,5.58191705022297,3.3034870072388145,32.473567962646484,32.569217681884766,-9.06257142857143,-0.0071868131868131875,1.5523516483516484,-9.745318681318683,0.20841758241758243,-1.300813186813187,-0.55694580078125,-0.03814697265625,0.5340576171875,0.3204345703125,-0.1983642578125,-0.19073486328125,-28576,-28816
36.01295,5.58191705022297,3.3586044211457846,32.473567962646484,32.57149887084961,-9.285362637362638,-0.7905494505494507,-1.5379780219780221,-10.607736263736264,-0.10780219780219781,-2.1776043956043956,-0.38909912109375,0.0152587890625,0.54168701171875,-0.6256103515625,-0.63323974609375,-0.5035400390625,-28565,-28823
36.052961,5.680362780893759,4.748447220350272,32.473567962646484,32.57149887084961,-9.544087912087912,-0.998967032967033,1.3511208791208793,-9.69501098901099,-0.2874725274725275,-4.484571428571429,0.12969970703125,0.152587890625,-0.1983642578125,-0.49591064453125,0.41961669921875,-0.885009765625,-28546,-28771
36.293972,13.43228060742507,-9.629869363798505,32.480377197265625,32.57605743408203,-62.16593406593407,-0.4743296703296704,2.4722637362637365,-64.83224175824176,-4.12523076923077,-5.037956043956044,8.544921875,1.5106201171875,0.3814697265625,11.1541748046875,-5.523681640625,1.53350830078125,-28555,-28814
36.333985,4.274646129746387,2.539747205434807,32.48491287231445,32.58289337158203,-69.2665054945055,-1.839824175824176,-12.138527472527473,-68.22441758241759,2.2710329670329674,-1.6314065934065933,-3.6163330078125,2.22015380859375,0.9613037109375,-4.5013427734375,-0.823974609375,0.02288818359375,-28524,-28786
36.373997,3.647975638131456,0.23180927088590408,32.491722106933594,32.59428787231445,-68.7274945054945,6.8634065934065935,7.229934065934067,-69.72646153846154,-3.499978021978022,-9.421912087912089,-5.36346435546875,-3.97491455078125,0.63323974609375,-3.3416748046875,1.40380859375,1.27410888671875,-28571,-28745
36.454023,6.469931261131421,0.6247392083382124,32.498531341552734,32.61479949951172,-72.27778021978023,-7.165252747252747,-2.529758241758242,-71.9903076923077,5.361362637362637,-3.478417582417583,5.0201416015625,0.61798095703125,4.5166015625,5.31768798828125,-7.4920654296875,3.814697265625,-28540,-28754
36.494035,6.595952727433243,6.215923885766671,32.512149810791016,32.628475189208984,-71.27162637362638,-3.1334505494505493,-11.822307692307692,-70.80448351648351,-1.264879120879121,-10.269956043956045,28.1982421875,-5.79071044921875,0.29754638671875,25.6195068359375,-0.55694580078125,-0.4119873046875,-28556,-28724
36.614169,9.733198127937158,7.235929062670067,32.528038024902344,32.66266250610352,-79.62989010989011,11.628263736263737,2.9825274725274724,-73.32705494505495,2.7884835164835167,-4.91578021978022,-18.6920166015625,-5.3253173828125,-1.800537109375,-20.9503173828125,6.683349609375,-2.0751953125,-28566,-28745
36.654182,10.136336174007965,9.109481142965706,32.53257751464844,32.67861557006836,-74.3907032967033,1.1642637362637362,1.7967032967032968,-75.63402197802198,4.089296703296704,-0.7330549450549451,-34.76715087890625,0.6256103515625,-1.190185546875,-33.660888671875,0.58746337890625,-0.34332275390625,-28501,-28755
36.694195,10.943972452168467,9.448253304468494,32.541656494140625,32.69684982299805,-74.9369010989011,3.334681318681319,-10.98145054945055,-74.6063076923077,18.369494505494508,-2.069802197802198,26.5045166015625,12.58087158203125,-1.45721435546875,29.97589111328125,2.9296875,-2.0751953125,-28585,-28775
36.696001,10.943972452168467,9.448253304468494,32.541656494140625,32.69684982299805,-74.9369010989011,3.334681318681319,-10.98145054945055,-74.6063076923077,18.369494505494508,-2.069802197802198,26.5045166015625,12.58087158203125,-1.45721435546875,29.97589111328125,2.9296875,-2.0751953125,-28555,-28755
36.736014,13.417831070837067,11.312354226126686,32.54619598388672,32.70824432373047,-79.06931868131868,0.5821318681318681,24.866373626373626,-74.74285714285715,5.850065934065935,-13.834615384615386,59.4329833984375,-19.622802734375,-3.8299560546875,63.8580322265625,2.92205810546875,-3.90625,-28433,-28736
36.776027,14.117999892588031,12.237634473045077,32.55073547363281,32.72191619873047,-80.16171428571428,-11.053318681318682,-18.455736263736263,-74.95846153846155,10.205274725274727,-3.0543956043956046,82.1533203125,12.62664794921875,-4.119873046875,81.09283447265625,-0.91552734375,-6.3934326171875,-28559,-28715
36.777804,14.117999892588031,12.237634473045077,32.55073547363281,32.72191619873047,-80.16171428571428,-11.053318681318682,-18.455736263736263,-74.95846153846155,10.205274725274727,-3.0543956043956046,82.1533203125,12.62664794921875,-4.119873046875,81.09283447265625,-0.91552734375,-6.3934326171875,-28559,-28715
