,time_stamp,baro_1,baro_2,height_baro_1,height_baro_2,temperature_baro_1,temperature_baro_2,acceleration_x_imu_1,acceleration_y_imu_1,acceleration_z_imu_1,acceleration_x_imu_2,acceleration_y_imu_2,acceleration_z_imu_2,gyro_x_imu_1,gyro_y_imu_1,gyro_z_imu_1,gyro_x_imu_2,gyro_y_imu_2,gyro_z_imu_2
116525,0.020027,0.9787062,0.9785892,39405.56635092889,39405.678381903,43.44144,41.633827,-9.687824175824176,-0.2802857142857143,-0.3593406593406594,-9.565648351648353,-1.1283296703296704,-0.0215604395604395,-0.35858154296875,1.41143798828125,1.800537109375,0.64849853515625,0.81634521484375,-0.2593994140625
116526,0.060044,0.9787495,0.97859945,39405.52489264243,39405.668566790206,43.439102,41.638477,-9.845934065934069,-0.8121098901098901,-0.0934285714285714,-9.860307692307693,-0.7330549450549451,-0.0215604395604395,0.25177001953125,-0.67901611328125,-0.46539306640625,-0.35858154296875,-0.78582763671875,0.41961669921875
116527,0.100063,0.9786888,0.9786457,39405.583011259085,39405.62428012131,43.439102,41.643124,-9.69501098901099,-0.8264835164835166,-0.079054945054945,-9.73813186813187,-0.8696043956043957,-0.2587252747252747,0.396728515625,-0.1220703125,0.45013427734375,-0.6103515625,-0.6103515625,-0.67138671875
116528,0.140188,0.97867664,0.9786476,39405.59465448279,39405.62246081331,43.439102,41.638477,-9.845934065934069,-0.7330549450549451,-0.0574945054945055,-9.76687912087912,-0.8336703296703297,-0.114989010989011,0.579833984375,-1.31988525390625,-0.89263916015625,-0.05340576171875,-0.48828125,-0.51116943359375
116529,0.180026,0.9786957,0.9787129,39405.576404547726,39405.55993580823,43.43676,41.6408,-9.709384615384616,-0.7402417582417582,-0.0862417582417582,-9.83156043956044,-0.9127252747252748,-0.1006153846153846,0.46539306640625,0.54931640625,0.030517578125,0.26702880859375,0.54168701171875,-0.78582763671875
116530,0.220028,0.97872875,0.9786749,39405.544759880766,39405.59632054576,43.44612,41.645447,-9.788439560439562,-0.8911648351648351,-0.2227912087912087,-9.702197802197803,-0.7330549450549451,-0.1006153846153846,-0.3814697265625,-1.39617919921875,-0.54931640625,0.8392333984375,-0.92315673828125,0.6866455078125
116531,0.260053,0.97872875,0.97858234,39405.544759880766,39405.68495089329,43.44612,41.63615,-9.76687912087912,-0.6899340659340659,-0.1437362637362637,-9.81,-0.7618021978021978,-0.2084175824175824,0.00762939453125,-0.25177001953125,-0.63323974609375,0.84686279296875,-0.335693359375,0.84686279296875
116532,0.300061,0.9787079,0.9786078,39405.56472320834,39405.66057112571,43.43676,41.647774,-9.867494505494506,-0.7905494505494507,0.0287472527472527,-9.76687912087912,-0.6971208791208792,-0.1078021978021978,0.52642822265625,-0.3509521484375,0.11444091796875,0.16021728515625,-0.030517578125,-0.2899169921875
116533,0.380069,0.9786455,0.9785925,39405.624471627576,39405.675221906386,43.44144,41.6408,-9.996857142857143,-0.8767912087912089,-0.2227912087912087,-10.01123076923077,-0.2946593406593407,-0.1581098901098901,-0.3204345703125,-0.8087158203125,0.1068115234375,-1.10626220703125,-0.2288818359375,-1.53350830078125
116534,0.420053,0.978675,0.9786406,39405.59622479495,39405.629163541125,43.443783,41.6408,-9.572835164835166,-0.459956043956044,-0.1293626373626373,-10.298703296703298,-0.4958901098901099,0.0143736263736263,-0.3509521484375,-0.5645751953125,0.0,0.11444091796875,0.17547607421875,1.2359619140625
116535,0.500104,0.9786976,0.9787008,39405.574585314986,39405.571521350525,43.448463,41.6408,-9.81,-1.451736263736264,-0.1006153846153846,-9.393164835164836,-1.034901098901099,-0.2084175824175824,-0.28228759765625,-0.95367431640625,-0.335693359375,0.335693359375,0.19073486328125,-0.09918212890625
116536,0.54004,0.9787097,0.97865086,39405.56299974202,39405.619339270466,43.448463,41.645447,-9.83156043956044,-0.2156043956043956,0.0143736263736263,-10.269956043956045,-0.2802857142857143,-0.1652967032967033,0.14495849609375,0.12969970703125,0.6561279296875,-0.52642822265625,1.617431640625,0.81634521484375
116537,0.580065,0.9786698,0.9786267,39405.6012038476,39405.642473358566,43.44144,41.645447,-9.83156043956044,-0.5965054945054945,-0.194043956043956,-9.500967032967033,-0.9270989010989013,-0.229978021978022,0.9002685546875,-0.78582763671875,0.83160400390625,0.72479248046875,0.63323974609375,-0.7171630859375
116538,0.620041,0.9787149,0.9786559,39405.55802085373,39405.61451334349,43.4508,41.647774,-9.587208791208791,-0.7833626373626373,-0.194043956043956,-10.32745054945055,-0.2874725274725275,-0.0143736263736263,0.29754638671875,0.5340576171875,0.0457763671875,0.1373291015625,-0.38909912109375,-1.068115234375
116539,0.740054,0.9787011,0.9786471,39405.571234104274,39405.622939578294,43.455482,41.654743,-9.644703296703296,-0.2515384615384615,-0.114989010989011,-9.580021978021978,-0.6396263736263736,-0.2443516483516483,-0.06866455078125,0.244140625,-0.03814697265625,0.19073486328125,0.35858154296875,-0.4425048828125
116540,0.780039,0.97867164,0.97865914,39405.59944202652,39405.611410972495,43.45314,41.654743,-9.745318681318684,-0.3377802197802198,-0.1006153846153846,-9.170373626373626,-1.3439340659340662,-0.2443516483516483,0.16021728515625,0.0152587890625,1.190185546875,-0.030517578125,-0.457763671875,-0.1678466796875
116541,0.82004,0.97867516,0.9787004,39405.596071593674,39405.57190434564,43.460163,41.657066,-9.687824175824176,-0.9774065934065936,-0.0862417582417582,-9.781252747252749,-0.5605714285714286,-0.2084175824175824,0.63323974609375,-0.35858154296875,0.1373291015625,-0.09918212890625,0.09918212890625,0.0
116542,0.86008,0.97865945,0.97860086,39405.61111414114,39405.667216620226,43.45314,41.650097,-9.92498901098901,-1.200197802197802,-0.0574945054945055,-9.321296703296705,-1.458923076923077,-0.229978021978022,1.04522705078125,0.67138671875,-0.02288818359375,-0.274658203125,0.60272216796875,0.030517578125
116543,0.900144,0.978682,0.9786078,39405.589522257906,39405.66057112571,43.45782,41.647774,-9.601582417582415,-0.3377802197802198,-0.0215604395604395,-10.176527472527471,-0.8696043956043957,0.0143736263736263,-0.1220703125,-0.70953369140625,-0.732421875,0.091552734375,-0.29754638671875,0.45013427734375
116544,0.940363,0.9786925,0.9786661,39405.57946852512,39405.6047466481,43.4625,41.65242,-9.666263736263735,-0.194043956043956,-0.079054945054945,-10.205274725274728,-0.2084175824175824,-0.114989010989011,-0.43487548828125,0.64849853515625,0.00762939453125,-0.1983642578125,-0.6103515625,-0.02288818359375
116545,1.020102,0.978663,0.97864016,39405.60771494877,39405.62958485674,43.460163,41.657066,-9.666263736263735,-1.3151868131868132,-1.3942417582417583,-10.449626373626376,-0.4312087912087912,-0.2084175824175824,0.2593994140625,0.20599365234375,0.46539306640625,-0.18310546875,0.152587890625,0.28228759765625
116546,1.060092,0.978663,0.9786643,39405.60771494877,39405.60647017659,43.460163,41.657066,-9.975296703296705,-0.9127252747252748,-0.2587252747252747,-9.824373626373626,-1.2145714285714286,-0.1652967032967033,1.1138916015625,-0.17547607421875,-0.14495849609375,-0.22125244140625,0.26702880859375,0.8544921875
116547,1.100128,0.978644,0.97865914,39405.62590792563,39405.611410972495,43.4625,41.654743,-9.89624175824176,-0.7043076923076923,0.2227912087912087,-9.917802197802198,-1.042087912087912,0.1221758241758241,-0.1983642578125,-0.4425048828125,0.1068115234375,0.58746337890625,0.49591064453125,0.18310546875
116548,1.140095,0.9786804,0.9786281,39405.59105426295,39405.64113279448,43.4625,41.657066,-9.350043956043956,-3.722769230769231,-2.0410549450549453,-10.514307692307693,-2.0194945054945057,-4.110857142857143,-0.54168701171875,-0.64849853515625,0.0152587890625,-2.3040771484375,1.64794921875,1.0986328125
116549,1.180065,0.97878625,0.97867445,39405.489706924694,39405.596751424506,43.471863,41.661716,-13.626197802197805,1.228945054945055,-3.119076923076923,-17.420835164835164,0.6755604395604397,7.467098901098901,-3.59344482421875,1.04522705078125,1.02996826171875,-7.28607177734375,3.22723388671875,0.64849853515625
116550,1.220066,0.9786787,0.97876055,39405.592682020535,39405.51431287878,43.467182,41.657066,-29.120967032967037,-0.1581098901098901,3.557472527472528,-32.72156043956044,-0.6468131868131869,0.2371648351648352,-21.66748046875,3.88336181640625,-1.068115234375,-15.73944091796875,2.62451171875,-1.6632080078125
116551,1.260064,0.978866,0.9789392,39405.413355202814,39405.343278807835,43.469524,41.661716,-51.01918681318682,-4.700175824175824,-8.315142857142858,-69.02215384615384,-3.9599340659340654,3.4424835164835166,-19.2413330078125,-1.8463134765625,-2.5482177734375,-23.92578125,10.74981689453125,3.570556640625
116552,1.300101,0.9777681,0.9794309,39406.46491481775,39404.872670666606,43.467182,41.666363,-94.42753846153846,2.565692307692308,-1.918879120879121,-132.61826373626374,4.520505494505494,2.989714285714286,-12.26806640625,-9.002685546875,1.708984375,-23.50616455078125,-1.88446044921875,1.9073486328125
116553,1.340088,0.9786423,0.9775671,39405.62753573223,39406.6575344979,43.467182,41.661716,-146.84815384615385,3.773076923076923,5.778197802197803,-114.92432967032968,6.626241758241759,0.7402417582417582,-8.1787109375,-2.61688232421875,-2.3651123046875,-6.27899169921875,-4.9591064453125,1.50299072265625
116554,1.380063,0.9783804,0.97814484,39405.87834105402,39406.10396863775,43.469524,41.661716,-79.85268131868132,5.785384615384616,-2.616,-155.83167032967037,1.8326373626373629,-2.9394065934065936,-19.4854736328125,-6.3934326171875,-3.5400390625,-5.1116943359375,9.71221923828125,2.99835205078125
116555,1.420081,0.9781168,0.97881195,39406.1308292579,39405.46510149372,43.476543,41.66404,-147.99085714285715,-3.672461538461538,7.323362637362638,-84.65347252747253,-0.5174505494505495,10.226835164835164,-20.53070068359375,-8.9263916015625,-5.3253173828125,-11.94000244140625,1.77001953125,-1.46484375
116556,1.460138,0.97860766,0.9777078,39405.660705184295,39406.522697355045,43.47888,41.671013,-181.8407472527473,-15.51632967032967,4.728923076923078,-134.04843956043956,16.41468131868132,2.810043956043956,-32.18841552734375,-0.12969970703125,6.805419921875,-15.83099365234375,5.47027587890625,7.01904296875
116557,1.500151,0.9776312,0.9794911,39406.59610354534,39404.815066138195,43.476543,41.666363,-107.49316483516483,-7.991736263736264,5.404483516483517,-138.15929670329672,1.7535824175824175,5.490725274725275,-43.86138916015625,-8.46099853515625,0.64849853515625,-40.61126708984375,0.77056884765625,6.84356689453125
116558,1.54008,0.9781637,0.9778782,39406.0859022518,39406.35941882244,43.481224,41.666363,-129.78665934065933,-7.754571428571428,-87.50663736263736,-76.48206593406594,-4.10367032967033,14.0070989010989,-7.9193115234375,5.462646484375,-4.3487548828125,31.65435791015625,1.2054443359375,-18.40972900390625
116559,1.5801,0.9787065,0.9776375,39405.56606368392,39406.590066045836,43.474205,41.666363,-121.6943076923077,-14.45268131868132,14.287384615384616,-119.28672527472528,-19.318153846153848,-11.56358241758242,115.88287353515624,0.49591064453125,8.09478759765625,18.56231689453125,-10.65826416015625,4.00543212890625
116560,1.620081,0.9782539,0.977763,39405.99950169724,39406.46980178632,43.483562,41.668686,-78.55905494505495,51.86004395604396,-42.96276923076924,-126.30105494505496,-42.28002197802198,-17.334593406593406,-30.66253662109375,13.67950439453125,-1.7852783203125,-61.2030029296875,-4.47845458984375,-6.6070556640625
116561,1.700116,0.9775219,0.9776597,39406.70085438473,39406.568791298676,43.476543,41.671013,-120.86782417582418,-50.45142857142858,-1.6817142857142855,-68.59094505494505,0.9055384615384616,100.04043956043957,43.28155517578125,8.55255126953125,-5.10406494140625,-32.12738037109375,19.6533203125,0.9765625
116562,1.740082,0.9776952,0.9773278,39406.534771682534,39406.886899151854,43.467182,41.673336,-84.29413186813187,14.51736263736264,2.7238021978021982,-138.0946153846154,14.05021978021978,18.110769230769236,-22.52197265625,32.6080322265625,1.45721435546875,-22.1405029296875,9.4757080078125,-8.1634521484375
116563,1.780058,0.9772599,0.9774259,39406.951988336376,39406.79286660483,43.4625,41.668686,-84.4163076923077,-1.3870549450549452,6.245340659340659,-137.1243956043956,1.2433186813186814,12.418813186813187,-36.50665283203125,7.43865966796875,-9.1400146484375,-49.70550537109375,2.0904541015625,-9.95635986328125
116564,1.820019,0.97723734,0.97699266,39406.97361524406,39407.208201135654,43.45782,41.668686,-118.8627032967033,0.8696043956043957,-19.75654945054945,-85.25716483516483,-1.1786373626373627,-15.437274725274726,-35.5072021484375,4.730224609375,-8.3770751953125,-27.9083251953125,11.14654541015625,-10.96343994140625
116565,1.860204,0.976965,0.97694445,39407.23472303367,39407.254427874344,43.455482,41.668686,-117.92123076923076,-0.1006153846153846,0.7761758241758242,-111.94898901098902,4.333648351648352,-1.2505054945054943,-24.25384521484375,6.14166259765625,-11.92474365234375,-23.040771484375,8.8958740234375,-10.32257080078125
116566,1.906546,0.976743,0.9767056,39407.447610618285,39407.4834793197,43.448463,41.66404,-76.77672527472528,-0.9486593406593408,2.802857142857143,-137.72808791208791,2.062615384615385,2.802857142857143,-20.24078369140625,4.87518310546875,-13.77105712890625,-24.10125732421875,4.791259765625,-12.39776611328125
116567,1.937483,0.97656086,0.97649914,39407.62230359339,39407.681506077504,43.448463,41.668686,-104.0938021978022,-0.2587252747252747,6.367516483516484,-89.31052747252747,0.4527692307692308,-2.3285274725274725,-21.9268798828125,4.913330078125,-11.22283935546875,-25.9552001953125,6.29425048828125,-14.73236083984375
116568,2.019997,0.9760197,0.97599875,39408.14149326336,39408.16159740901,43.43442,41.671013,-72.2705934065934,7.819252747252748,-5.382923076923078,-117.51876923076924,2.9394065934065936,1.1211428571428572,-9.0484619140625,11.8865966796875,-12.88604736328125,-12.5732421875,6.98089599609375,-13.93890380859375
116569,2.059996,0.9756538,0.9758701,39408.49267033661,39408.28506083858,43.439102,41.661716,-142.4713846153846,6.597494505494506,-0.1652967032967033,-82.98613186813188,5.965054945054945,-0.1078021978021978,-24.5208740234375,6.66046142578125,-9.2620849609375,-19.439697265625,4.7454833984375,-13.092041015625
116570,2.100031,0.9755151,0.9753836,39408.62581725932,39408.75206660196,43.43676,41.659393,-97.09384615384616,-0.5965054945054945,-1.3726813186813187,-145.33173626373627,-6.108791208791209,-7.21556043956044,-28.4881591796875,0.16021728515625,-11.36016845703125,-14.83917236328125,3.56292724609375,-8.43048095703125
116571,2.140109,0.97522195,0.9752683,39408.907280971885,39408.86277413379,43.42506,41.661716,-67.36918681318681,8.66010989010989,9.465032967032968,-105.5096043956044,4.951714285714286,3.119076923076923,-6.8206787109375,12.3138427734375,-8.0718994140625,-10.0860595703125,4.425048828125,-10.3302001953125
116572,2.179997,0.9748109,0.9749123,39409.30206005493,39409.20466132903,43.43676,41.66404,-131.0659120879121,3.0615824175824176,1.020527472527473,-61.99345054945055,3.1118901098901097,0.4671428571428571,-22.4761962890625,1.2054443359375,-5.47027587890625,-18.9361572265625,2.1820068359375,-7.97271728515625
116573,2.220023,0.9745924,0.97449484,39409.51196586741,39409.605700877895,43.42038,41.654743,-113.84630769230768,4.189912087912088,10.93832967032967,-105.22931868131867,8.30076923076923,-1.6242197802197802,-25.59661865234375,-1.38092041015625,-5.88226318359375,-34.576416015625,-2.79998779296875,-2.9754638671875
116574,2.300053,0.9740739,0.9739704,39410.01022441991,39410.109709649376,43.4274,41.657066,-74.96564835164835,-4.12523076923077,9.587208791208791,-84.76127472527473,4.10367032967033,2.968153846153846,-32.9437255859375,-2.69317626953125,0.52642822265625,-42.5872802734375,-4.82940673828125,-2.1820068359375
116575,2.340048,0.9736907,0.9737487,39410.37860290196,39410.32283870406,43.42974,41.654743,-145.65514285714286,0.8624175824175825,1.8901318681318684,-68.65562637362638,3.852131868131868,2.062615384615385,-22.7508544921875,3.60870361328125,-1.3427734375,-35.4766845703125,-2.92205810546875,1.42669677734375
116576,2.380051,0.97322766,0.9733566,39410.82388996603,39410.699876290426,43.43442,41.657066,-102.82173626373628,1.926065934065934,4.951714285714286,-132.5967032967033,-3.2843736263736263,-5.009208791208791,-36.68212890625,-12.20703125,0.48828125,-34.1033935546875,-4.35638427734375,5.6915283203125
116577,2.420038,0.97296234,0.9729012,39411.079114919994,39411.137936619736,43.42974,41.65242,-60.936989010989016,7.8623736263736275,-6.496879120879121,-130.2969230769231,-1.2217582417582418,0.4096483516483516,-25.848388671875,-7.232666015625,-1.15203857421875,-21.0113525390625,0.84686279296875,1.47247314453125
116578,2.460126,0.97271266,0.97263445,39411.319346427656,39411.39460704241,43.43208,41.657066,-80.10421978021978,-1.3654945054945056,8.602615384615385,-84.40912087912088,3.672461538461538,0.2012307692307692,-27.96173095703125,-6.3323974609375,6.47735595703125,-33.7066650390625,-7.1563720703125,2.3345947265625
116579,2.500136,0.97232414,0.97233555,39411.6932632096,39411.682280350724,43.43208,41.65242,-141.5299120879121,-3.701208791208791,-0.3521538461538461,-65.37125274725275,1.3295604395604397,3.3993626373626373,-18.30291748046875,1.83868408203125,4.05120849609375,-19.84405517578125,-1.94549560546875,4.98199462890625
116580,2.540058,0.9717588,0.9719092,39412.23757004826,39412.09274056954,43.43442,41.650097,-99.83202197802196,-4.06054945054945,1.7104615384615385,-126.66758241758242,5.598527472527473,1.6745274725274726,-28.95355224609375,-10.12420654296875,1.22833251953125,-31.0211181640625,-7.57598876953125,7.91168212890625
116581,2.580059,0.97135305,0.97140695,39412.628382414514,39412.57645912357,43.43208,41.657066,-61.65567032967033,3.2628131868131867,-2.0123076923076924,-123.92221978021978,3.6365274725274728,8.387010989010989,-6.40869140625,-2.23541259765625,0.0152587890625,-6.8511962890625,-1.800537109375,2.49481201171875
116582,2.62006,0.97112766,0.9710427,39412.845531821156,39412.92739614774,43.43442,41.650097,-60.41235164835165,-2.501010989010989,5.886,-93.9029010989011,-3.9311868131868137,-3.2484395604395604,-6.90460205078125,-6.75201416015625,0.244140625,-17.1966552734375,-2.78472900390625,1.22833251953125
116583,2.660059,0.9707513,0.9706798,39413.20822252019,39413.277138527425,43.43442,41.654743,-151.41178021978024,2.062615384615385,-12.907516483516485,-56.49553846153847,2.213538461538462,-1.078021978021978,8.23211669921875,-2.685546875,4.3792724609375,10.8184814453125,-2.50244140625,1.007080078125
116584,2.700091,0.9703647,0.9703327,39413.58089986994,39413.61175283904,43.42974,41.650097,-127.60186813186814,-1.7751428571428571,-1.3798681318681318,-87.05386813186814,2.170417582417582,-6.3243956043956056,19.23370361328125,1.68609619140625,-1.5411376953125,22.247314453125,4.913330078125,0.84686279296875
116585,2.740055,0.9697508,0.9698894,39414.172938554104,39414.03924765892,43.43208,41.645447,-90.33105494505494,-0.9342857142857144,0.1293626373626373,-146.81221978021978,-1.106769230769231,2.3141538461538462,24.51324462890625,6.28662109375,-1.007080078125,21.94976806640625,4.81414794921875,1.01470947265625
116586,2.780067,0.9694611,0.9692326,39414.45242757742,39414.67292140962,43.443783,41.647774,-54.70602197802198,4.304901098901099,1.2145714285714286,-120.89657142857143,3.327494505494506,8.214527472527474,29.67071533203125,5.65338134765625,-1.57928466796875,22.5982666015625,2.64739990234375,-1.8768310546875
116587,2.820062,0.9689825,0.9687101,39414.91430667418,39415.1772722966,43.44144,41.645447,-56.17931868131869,-4.340835164835165,6.56156043956044,-91.45219780219782,2.93221978021978,3.370615384615385,32.9437255859375,4.99725341796875,-2.14385986328125,23.7274169921875,4.11224365234375,-1.7852783203125
116588,2.860055,0.9682648,0.9684112,39415.6072786216,39415.46588901418,43.42974,41.6408,-144.3830769230769,-4.39832967032967,-5.325428571428572,-64.73162637362637,5.713516483516484,0.2802857142857143,24.9786376953125,2.92205810546875,0.5035400390625,34.17205810546875,7.32421875,-0.75531005859375
116589,2.900093,0.9677948,0.9680482,39416.0613103632,39415.816497458094,43.43676,41.645447,-113.7385054945055,2.601626373626374,7.071824175824176,-122.00334065934068,7.488659340659341,-0.963032967032967,13.85498046875,-3.12042236328125,-3.6468505859375,12.84027099609375,-1.93023681640625,3.265380859375
116590,2.980056,0.9670319,0.966888,39416.79867106584,39416.93780658055,43.43208,41.643124,-76.06523076923077,0.7618021978021978,9.127252747252747,-85.08468131868132,4.046175824175824,0.7186813186813188,15.55633544921875,1.50299072265625,-0.0762939453125,10.040283203125,-1.33514404296875,-3.59344482421875
116591,3.060059,0.9658302,0.9660476,39417.96109810143,39417.75071625477,43.43208,41.638477,-82.69147252747253,-2.357274725274725,-0.9414725274725276,-145.15206593406594,-9.041010989010989,2.1201098901098905,-8.270263671875,-1.31988525390625,-2.197265625,-0.17547607421875,1.40380859375,2.6397705078125
116592,3.100093,0.9653377,0.96561945,39418.43784097179,39418.16508123028,43.43442,41.6408,-112.40175824175824,2.4075824175824176,6.74123076923077,-90.00764835164836,-4.369582417582418,-2.616,-14.71710205078125,-3.387451171875,-1.15203857421875,-27.7252197265625,-1.02996826171875,-0.80108642578125
116593,3.140062,0.9649302,0.9649817,39418.83245225966,39418.78257369167,43.43676,41.6408,-101.88745054945056,-1.990747252747253,-4.082109890109891,-98.82586813186812,3.1621978021978028,0.4455824175824175,-26.40533447265625,3.173828125,0.34332275390625,-9.765625,11.87896728515625,-2.81524658203125
116594,3.180084,0.96431305,0.9643991,39419.43033958617,39419.34695682021,43.43208,41.638477,-86.19145054945056,0.1796703296703297,5.842879120879121,-87.26947252747253,3.011274725274726,-0.3809010989010989,-44.9066162109375,-2.74658203125,-0.0152587890625,-50.97198486328125,-2.06756591796875,0.3509521484375
116595,3.220058,0.9637599,0.9638697,39419.96648785584,39419.86004287377,43.43442,41.638477,-48.17320879120879,-20.036835164835164,1.013340659340659,-46.23276923076924,-1.078021978021978,3.1118901098901097,-60.23406982421875,1.85394287109375,0.49591064453125,-55.79376220703125,0.89263916015625,-1.251220703125
116596,3.260059,0.96293125,0.96288805,39420.77013470568,39420.812046572086,43.4274,41.6408,-6.820285714285714,-3.068769230769231,4.779230769230769,-7.503032967032967,3.025648351648352,-1.308,-50.689697265625,4.8980712890625,3.4332275390625,-51.94854736328125,-2.11334228515625,2.83050537109375
116597,3.300092,0.9623053,0.96222625,39421.37756903736,39421.45430348084,43.42974,41.6408,0.6324395604395605,-11.355164835164835,4.110857142857143,-3.722769230769231,0.4096483516483516,3.119076923076923,-54.28314208984375,0.61798095703125,2.41851806640625,-57.861328125,-1.45721435546875,-8.00323486328125
116598,3.340064,0.96156164,0.96136695,39422.09964746407,39422.28876209713,43.42272,41.638477,-7.5677142857142865,-2.148857142857143,-3.025648351648352,-1.113956043956044,-1.926065934065934,2.889098901098901,-31.77642822265625,0.77056884765625,6.59942626953125,-23.46038818359375,4.29534912109375,5.62286376953125
116599,3.380065,0.9607401,0.9606601,39422.89787163313,39422.97563070832,43.41336,41.645447,-0.8264835164835166,-3.8665054945054944,0.5821318681318681,-2.3285274725274725,-9.443472527472528,3.6005934065934064,-7.27081298828125,-7.14874267578125,3.570556640625,-8.04901123046875,-2.0599365234375,5.92803955078125
116600,3.420081,0.9598523,0.959877,39423.761096884096,39423.73707185124,43.41804,41.633827,-1.918879120879121,0.6396263736263736,0.0071868131868131,-3.1621978021978028,-6.2237802197802194,-1.911692307692308,30.12847900390625,1.74713134765625,3.08990478515625,17.791748046875,-3.021240234375,3.082275390625
116601,3.460118,0.95905836,0.95911195,39424.53360798028,39424.48144811255,43.4157,41.63615,-2.5944395604395605,-4.10367032967033,4.153978021978023,-2.393208791208792,-3.104703296703297,1.5164175824175825,65.62042236328125,6.927490234375,0.3204345703125,54.11529541015625,-2.03704833984375,1.4190673828125
116602,3.540049,0.9574321,0.9574827,39426.11759229187,39426.06827484699,43.4157,41.633827,1.3511208791208793,0.6324395604395605,-0.5461978021978022,-0.1509230769230769,-0.9127252747252748,2.996901098901099,125.0457763671875,-1.88446044921875,-5.37109375,117.02728271484376,-0.54931640625,-3.21197509765625
116603,3.580047,0.9566555,0.95667664,39426.87477274231,39426.85415477769,43.4157,41.633827,0.6827472527472528,2.493824175824176,6.906527472527474,-0.0359340659340659,-1.80389010989011,2.2710329670329674,145.50018310546875,2.95257568359375,-6.41632080078125,149.0631103515625,6.0272216796875,-3.9520263671875
116604,3.62006,0.9558807,0.9559648,39427.6306943373,39427.54861947966,43.41102,41.638477,0.998967032967033,-3.183758241758242,3.708395604395605,0.4024615384615385,-4.470197802197802,-0.574945054945055,148.24676513671875,6.1492919921875,-6.40869140625,141.387939453125,2.41851806640625,-4.89044189453125
116605,3.660031,0.9550537,0.95510766,39428.43809163645,39428.385393411416,43.4157,41.631504,1.9763736263736265,-0.079054945054945,13.90648351648352,-3.492791208791209,-3.722769230769231,2.2854065934065937,126.59454345703124,-4.5013427734375,-2.9296875,121.7498779296875,0.81634521484375,-3.07464599609375
116606,3.700065,0.95422336,0.9543406,39429.24931949968,39429.13474339516,43.41336,41.638477,1.573912087912088,1.80389010989011,17.097428571428573,2.43632967032967,4.527692307692308,4.089296703296704,90.41595458984376,-0.98419189453125,-3.85284423828125,95.2301025390625,-2.1209716796875,-2.4566650390625
116607,3.740032,0.95347805,0.9535317,39429.977961441815,39429.925495865646,43.41102,41.631504,2.091362637362637,1.8182637362637364,-18.613846153846158,1.1786373626373627,2.6806813186813185,-6.89934065934066,58.76922607421875,-1.953125,-0.762939453125,71.3043212890625,1.7852783203125,-1.2054443359375
116608,3.780033,0.9527046,0.9527978,39430.73460184983,39430.643401039655,43.41804,41.631504,1.264879120879121,-3.1550109890109894,6.266901098901099,0.0215604395604395,0.424021978021978,-3.4352967032967032,35.1104736328125,-6.2713623046875,3.08990478515625,43.3807373046875,-1.64031982421875,2.05230712890625
116609,3.820032,0.9519491,0.9519678,39431.47416272401,39431.45585151129,43.41102,41.631504,1.1427032967032968,1.6817142857142855,3.557472527472528,0.8552307692307692,0.6036923076923078,-1.0636483516483517,34.52301025390625,0.83160400390625,3.19671630859375,37.83416748046875,2.349853515625,3.95965576171875
116610,3.860032,0.95110984,0.951183,39432.29627388854,39432.224585422526,43.4157,41.62453,-1.5595384615384615,-4.8582857142857145,4.635494505494505,1.3151868131868132,-0.2874725274725275,-0.6108791208791209,33.89739990234375,-4.29534912109375,2.66265869140625,35.858154296875,4.4708251953125,3.387451171875
116611,3.900067,0.95036266,0.950423,39433.02868095015,39432.969516665435,43.41804,41.62918,0.9845934065934068,-2.8316043956043955,1.0061538461538462,0.804923076923077,2.2710329670329674,3.31312087912088,44.3115234375,10.50567626953125,2.92205810546875,46.7681884765625,4.93621826171875,2.52532958984375
116612,3.94005,0.9495861,0.9496673,39433.79038139556,39433.71071155862,43.41804,41.62453,1.8470109890109887,1.3654945054945056,-6.115978021978022,0.8552307692307692,0.0862417582417582,-0.7258681318681319,50.48370361328125,4.72259521484375,0.99945068359375,48.9959716796875,1.556396484375,0.78582763671875
116613,3.980049,0.94882164,0.9488394,39434.54070618089,39434.52326901848,43.41804,41.619884,1.80389010989011,-1.767956043956044,1.14989010989011,0.6036923076923078,0.2515384615384615,-1.3223736263736263,72.4945068359375,2.62451171875,-1.2969970703125,66.36810302734375,2.75421142578125,0.00762939453125
116614,4.020254,0.9480815,0.9480773,39435.26762718108,39435.27175347944,43.41804,41.62918,0.459956043956044,0.1581098901098901,6.820285714285714,2.2710329670329674,-4.348021978021978,-1.078021978021978,79.6051025390625,-1.312255859375,-3.16619873046875,74.4171142578125,1.617431640625,-2.2430419921875
116615,4.060049,0.9472857,0.9473266,39436.04972689493,39436.0095180528,43.42038,41.626858,1.8541978021978025,-2.5585054945054946,1.8541978021978025,3.916813186813188,1.617032967032967,-2.486637362637363,81.35223388671875,-3.0517578125,-2.5482177734375,80.322265625,-0.51116943359375,-4.1656494140625
116616,4.100085,0.9462908,0.94656375,39437.02824760556,39436.75970836308,43.42038,41.62453,2.7238021978021982,-2.5513186813186817,4.046175824175824,1.3439340659340662,0.3018461538461539,5.002021978021978,81.60400390625,5.43975830078125,-3.10516357421875,82.550048828125,4.32586669921875,-2.1209716796875
116617,4.14006,0.945587,0.9457529,39437.72096396011,39437.55763900537,43.42038,41.622208,2.623186813186813,1.020527472527473,3.773076923076923,0.4168351648351648,-2.7238021978021982,1.609846153846154,57.09075927734375,-2.5177001953125,-1.28173828125,55.755615234375,-1.89208984375,-0.28228759765625
116618,4.18005,0.9447842,0.94498805,39438.51163111089,39438.310810416035,43.42506,41.62453,2.63756043956044,2.069802197802198,2.112923076923077,2.925032967032968,-1.7823296703296705,-1.1786373626373627,42.15240478515625,-3.50189208984375,-2.01416015625,41.81671142578125,-2.70843505859375,-0.823974609375
116619,4.220051,0.9440492,0.9442302,39439.23600009911,39439.0575757074,43.4274,41.62453,3.27,2.148857142857143,-6.453758241758242,2.730989010989011,2.29978021978022,-2.6088131868131867,28.63311767578125,-4.24957275390625,0.91552734375,27.4810791015625,-4.7454833984375,0.6256103515625
116620,4.260051,0.9432696,0.9434845,39440.00482321681,39439.79284255966,43.42038,41.62453,1.1355164835164837,0.8983516483516484,8.70323076923077,3.068769230769231,1.3726813186813187,-0.7618021978021978,15.92254638671875,-4.241943359375,0.12969970703125,19.11163330078125,-2.86865234375,1.33514404296875
116621,4.300095,0.9425811,0.9427196,39440.68423361712,39440.54752981988,43.4274,41.626858,0.4887032967032967,-2.465076923076923,-8.099538461538462,1.4086153846153846,2.0985494505494504,-0.3018461538461539,17.06695556640625,-3.59344482421875,1.48773193359375,18.707275390625,0.7781982421875,1.40380859375
116622,4.340029,0.94184805,0.942022,39441.40804768443,39441.23624806894,43.42506,41.626858,3.2556263736263737,-0.4815164835164835,0.4168351648351648,2.925032967032968,-0.0071868131868131,-5.591340659340659,30.0140380859375,-5.27191162109375,-0.14495849609375,30.82275390625,-0.06866455078125,-0.08392333984375
116623,4.380031,0.9411444,0.9412643,39442.10326137301,39441.98476915633,43.42506,41.626858,3.147824175824176,-0.3449670329670329,-1.1714505494505496,2.996901098901099,-0.5605714285714286,-0.4743296703296704,43.670654296875,-1.54876708984375,-0.9307861328125,44.7540283203125,2.9754638671875,0.38909912109375
116624,4.420044,0.9403265,0.9405163,39442.91188439482,39442.72418645955,43.42272,41.631504,3.8449450549450552,-0.0071868131868131,-0.3449670329670329,2.8962857142857144,1.8973186813186813,0.0862417582417582,50.8880615234375,3.0517578125,-1.68609619140625,56.2744140625,5.13458251953125,-0.7781982421875
116625,4.457558,0.9395743,0.93978,39443.65605548894,39443.45250320223,43.42272,41.62453,2.170417582417582,-1.5810989010989014,-2.4291428571428573,2.45789010989011,-0.0934285714285714,-1.458923076923077,48.2940673828125,3.41033935546875,-0.885009765625,55.09185791015625,6.3629150390625,-1.06048583984375
116626,4.500063,0.93886055,0.9388348,39444.36263316463,39444.388132535954,43.41804,41.626858,4.12523076923077,-0.5677582417582419,-11.010197802197805,2.580065934065934,1.8685714285714283,-6.04410989010989,50.5218505859375,1.89971923828125,-0.1373291015625,53.23028564453125,7.62176513671875,-0.26702880859375
116627,4.540054,0.9380992,0.9380917,39445.11681209935,39445.124243922495,43.42506,41.633827,3.0759560439560443,-1.609846153846154,0.9055384615384616,2.4435164835164835,0.1006153846153846,1.904505494505495,40.1763916015625,5.4473876953125,-0.52642822265625,40.6951904296875,3.7994384765625,-1.190185546875
116628,4.580028,0.9374127,0.93732914,39445.79727107176,39445.88012330771,43.4274,41.631504,2.0410549450549453,2.486637362637363,8.236087912087912,4.139604395604396,-1.688901098901099,3.6005934065934064,41.41998291015625,3.2501220703125,-2.6397705078125,41.70989990234375,2.7618408203125,-2.2125244140625
116629,4.620063,0.9366555,0.9366075,39446.54827602879,39446.59589988286,43.42506,41.631504,2.6806813186813185,1.724835164835165,0.7474285714285716,3.44967032967033,-0.1006153846153846,0.0934285714285714,34.60693359375,-4.150390625,-2.76947021484375,34.91973876953125,-1.04522705078125,-1.91497802734375
116630,4.660049,0.9359318,0.935881,39447.26651465205,39447.3169481803,43.4157,41.62918,3.4424835164835166,0.9917802197802198,-3.384989010989011,2.0985494505494504,-1.106769230769231,-1.0708351648351648,34.66796875,-3.2196044921875,-3.570556640625,37.68157958984375,-1.64794921875,-2.9144287109375
116631,4.700082,0.9352261,0.9351572,39447.967322290984,39448.03576757326,43.42038,41.633827,3.888065934065934,0.1796703296703297,2.7238021978021982,3.169384615384616,-0.2156043956043956,1.6026593406593408,26.3824462890625,-6.70623779296875,-3.5400390625,24.69635009765625,0.31280517578125,-3.53240966796875
116632,4.740049,0.9345174,0.934498,39448.671540181575,39448.690823567784,43.41804,41.62918,5.167318681318681,-0.4743296703296704,1.422989010989011,2.1272967032967034,-1.3583076923076924,6.187846153846154,13.66424560546875,-6.622314453125,-2.32696533203125,16.15142822265625,-2.86865234375,-1.1749267578125
116633,4.78005,0.9336783,0.9336994,39449.50589267914,39449.48490461953,43.42272,41.626858,3.3562417582417585,0.2156043956043956,-0.1868571428571429,3.6149670329670336,-1.3511208791208793,-0.2515384615384615,13.93890380859375,-4.5623779296875,-1.251220703125,20.34759521484375,-3.6163330078125,0.32806396484375
116634,4.82005,0.9329262,0.9330669,39450.254253552026,39450.11421591762,43.42272,41.62918,3.0472087912087917,-0.0646813186813186,5.74945054945055,2.263846153846154,-2.091362637362637,0.4383956043956044,17.08984375,-2.13623046875,0.74005126953125,15.99884033203125,-2.00653076171875,0.54931640625
116635,4.860048,0.93220336,0.9323261,39450.973960399286,39450.851720573715,43.42506,41.631504,1.451736263736264,-0.9486593406593408,-8.437318681318683,4.0964835164835165,0.2227912087912087,-4.772043956043956,6.7291259765625,0.34332275390625,4.119873046875,5.615234375,0.22125244140625,0.45013427734375
116636,4.900083,0.9314705,0.9315564,39451.70410527238,39451.618499457945,43.42272,41.631504,3.8665054945054944,0.919912087912088,4.12523076923077,3.0184615384615388,1.034901098901099,4.247406593406594,6.0272216796875,-0.732421875,3.10516357421875,7.94219970703125,2.3040771484375,2.99835205078125
116637,4.940073,0.9308083,0.930972,39452.36425207329,39452.20102426217,43.42506,41.633827,4.189912087912088,0.0503076923076923,-6.460945054945055,2.7022417582417586,-1.5164175824175825,-5.43323076923077,17.14324951171875,-1.64031982421875,0.8697509765625,13.60321044921875,1.3580322265625,2.410888671875
116638,4.98008,0.9301362,0.9302745,39453.03465713703,39452.89667386459,43.42272,41.633827,2.0410549450549453,-0.1293626373626373,1.020527472527473,3.198131868131868,-1.451736263736264,0.1868571428571429,42.0074462890625,4.63104248046875,-1.0223388671875,35.1409912109375,4.37164306640625,-1.220703125
116639,5.02005,0.9294447,0.9295748,39453.72482278774,39453.59494208892,43.42272,41.638477,0.4815164835164835,-2.5728791208791213,2.996901098901099,2.450703296703297,0.0,1.2720659340659342,50.40740966796875,1.77764892578125,-2.55584716796875,46.18072509765625,5.55419921875,-2.78472900390625
116640,5.060048,0.9287633,0.9288387,39454.405314749,39454.32999534047,43.4274,41.631504,2.580065934065934,-0.4958901098901099,0.8696043956043957,3.334681318681319,1.1283296703296704,1.7176483516483516,42.13714599609375,-0.40435791015625,-4.95147705078125,45.87554931640625,3.4942626953125,-5.92041015625
116641,5.100082,0.9280305,0.9281123,39455.137589500926,39455.055824923074,43.42506,41.62918,5.993802197802198,1.4732967032967033,-1.918879120879121,3.981494505494506,0.6827472527472528,-1.113956043956044,40.16876220703125,2.03704833984375,-4.547119140625,33.98895263671875,4.09698486328125,-4.302978515625
116642,5.140047,0.9273198,0.92737875,39455.84822745532,39455.78926583261,43.4274,41.62918,3.643714285714286,-1.0636483516483517,0.5102637362637363,4.003054945054945,1.4301758241758245,0.7833626373626373,37.9791259765625,1.64031982421875,-4.45556640625,35.30120849609375,2.5787353515625,-2.86865234375
116643,5.180047,0.92664055,0.9267176,39456.52783042765,39456.45072010993,43.4274,41.6408,4.75767032967033,1.185824175824176,-3.0040879120879125,2.508197802197802,-0.4096483516483516,3.384989010989011,30.06744384765625,6.7138671875,-1.678466796875,32.196044921875,4.791259765625,-1.70135498046875
116644,5.260049,0.9252357,0.92532734,39457.934691295326,39457.84286740981,43.42272,41.631504,2.7453626373626374,1.3367472527472526,-1.6673406593406594,3.025648351648352,1.14989010989011,-1.0708351648351648,0.6561279296875,-1.31988525390625,0.98419189453125,5.48553466796875,1.220703125,0.9002685546875
116645,5.300085,0.924557,0.924618,39458.61498250889,39458.55382295915,43.43442,41.631504,5.224813186813187,2.802857142857143,-4.225846153846154,3.5215384615384617,-1.4445494505494507,-1.308,-6.5155029296875,-2.73895263671875,0.99945068359375,0.72479248046875,-1.8768310546875,1.64794921875
116646,5.346748,0.9239114,0.9236176,39459.26247148101,39459.557252415485,43.4274,41.63615,3.6365274725274728,-1.5882857142857143,-0.654,3.90243956043956,1.688901098901099,1.969186813186813,-7.94219970703125,-0.9307861328125,2.44903564453125,-10.7574462890625,-0.67138671875,2.66265869140625
116647,5.380035,0.923242,0.92331445,39459.93421705925,39459.86149416636,43.43208,41.62918,2.213538461538462,0.804923076923077,1.911692307692308,2.148857142857143,-0.4671428571428571,-0.0503076923076923,-15.594482421875,-0.1220703125,3.143310546875,-11.29150390625,-4.9591064453125,2.3040771484375
116648,5.420036,0.92238586,0.92257625,39460.79393195016,39460.60269111032,43.43442,41.638477,2.4722637362637365,-0.2443516483516483,1.2864395604395606,1.2936263736263738,1.4373626373626376,0.2874725274725275,-16.4794921875,-2.5634765625,0.762939453125,-15.2435302734375,-2.06756591796875,1.6937255859375
116649,5.500059,0.9210224,0.92127766,39462.164420009234,39461.90771932383,43.43208,41.638477,0.5318241758241758,-1.7392087912087917,5.641648351648351,3.0040879120879125,1.6385934065934065,0.4743296703296704,-17.37213134765625,-3.3721923828125,-0.152587890625,-15.7928466796875,-1.3275146484375,-0.80108642578125
116650,5.54001,0.9203917,0.9205778,39462.79892676969,39462.61166690772,43.43208,41.631504,0.8983516483516484,0.424021978021978,2.465076923076923,2.968153846153846,0.5893186813186814,-0.8983516483516484,-14.801025390625,-1.45721435546875,-1.40380859375,-16.28875732421875,-5.4931640625,-2.20489501953125
116651,5.579971,0.9197611,0.9199454,39463.43368499773,39463.2481332736,43.43208,41.633827,4.829538461538462,0.4887032967032967,-4.592373626373627,3.3562417582417585,-1.8470109890109887,-1.3870549450549452,-9.6282958984375,-0.2593994140625,-0.92315673828125,-9.33837890625,0.3662109375,-0.31280517578125
116652,5.620018,0.919094,0.919236,39464.105567592655,39463.96251648918,43.43208,41.633827,4.894219780219781,1.6385934065934065,0.0646813186813186,3.1909450549450558,0.1293626373626373,1.0564615384615386,-9.81903076171875,0.1373291015625,-0.96893310546875,-11.1083984375,0.34332275390625,-1.60980224609375
116653,5.700005,0.9177747,0.9177307,39465.435489452844,39465.47987036984,43.439102,41.638477,1.0492747252747252,0.8911648351648351,7.402417582417582,3.119076923076923,1.3511208791208793,3.0975164835164835,1.28936767578125,4.61578369140625,-0.946044921875,-4.15802001953125,-0.87738037109375,-3.12042236328125
116654,5.739969,0.9170928,0.9171103,39466.123486432225,39466.105824784034,43.43208,41.6408,3.672461538461538,0.3809010989010989,-0.229978021978022,3.2556263736263737,-0.4312087912087912,2.6088131868131867,1.3427734375,0.5645751953125,-0.3204345703125,-2.2430419921875,0.20599365234375,-0.92315673828125
116655,5.779955,0.91645266,0.9164009,39466.76972706896,39466.82199631981,43.439102,41.6408,2.2710329670329674,-1.631406593406593,0.8192967032967032,2.364461538461539,0.1868571428571429,-0.459956043956044,-4.26483154296875,-3.570556640625,-1.953125,-0.48065185546875,-1.36566162109375,1.38092041015625
116656,5.819954,0.91575875,0.91579734,39467.470663113476,39467.431671087004,43.43208,41.645447,2.860351648351649,0.0215604395604395,-3.888065934065934,3.60778021978022,-0.2156043956043956,0.4312087912087912,5.50079345703125,1.8463134765625,0.55694580078125,13.36669921875,4.1046142578125,0.1220703125
116657,5.859985,0.9151281,0.91514086,39468.10807176694,39468.09517149361,43.43208,41.647774,4.807978021978022,1.5954725274725277,1.228945054945055,2.4435164835164835,-1.566725274725275,0.4455824175824175,2.5177001953125,2.0599365234375,-0.1068115234375,3.62396240234375,1.220703125,2.01416015625
116658,5.89999,0.9145459,0.9145397,39468.69682699734,39468.703098438615,43.43208,41.647774,1.4014285714285717,-0.9486593406593408,-0.114989010989011,2.170417582417582,-1.494857142857143,-2.6663076923076923,-2.76947021484375,-3.65447998046875,1.2054443359375,1.24359130859375,1.46484375,-0.61798095703125
116659,5.939955,0.9138278,0.9138784,39469.42343053316,39469.3722162045,43.42506,41.647774,1.7104615384615385,0.6252527472527473,1.8541978021978025,3.679648351648352,1.2361318681318685,1.228945054945055,-1.50299072265625,-0.885009765625,-0.3204345703125,0.17547607421875,-2.7618408203125,-2.1514892578125
116660,5.980025,0.9132434,0.9131836,39470.01509212898,39470.07565247606,43.42974,41.643124,2.371648351648352,-0.5965054945054945,-0.6755604395604397,1.8829450549450557,-0.7330549450549451,-1.2433186813186814,0.19073486328125,-2.685546875,-0.98419189453125,-2.74658203125,-4.4403076171875,-0.89263916015625
116661,6.019979,0.9126053,0.9125296,39470.66147120491,39470.73817766006,43.42038,41.6408,3.370615384615385,2.350087912087912,4.807978021978022,4.743296703296704,-1.7463956043956046,0.9702197802197802,0.030517578125,-2.03704833984375,-1.708984375,-1.02996826171875,-2.09808349609375,-0.80108642578125
116662,6.060026,0.9119747,0.9119333,39471.30061259345,39471.34258586702,43.42038,41.643124,1.7607692307692309,0.7474285714285716,-6.69810989010989,1.7176483516483516,0.5893186813186814,-3.068769230769231,-2.25830078125,-7.14111328125,-2.38800048828125,-0.17547607421875,-4.8675537109375,-2.66265869140625
116663,6.100037,0.91117195,0.9113322,39472.11475364723,39471.95218330982,43.42506,41.643124,2.026681318681318,-1.3439340659340662,-2.7812967032967038,3.025648351648352,-0.2802857142857143,-0.3593406593406594,11.23809814453125,-1.42669677734375,-1.46484375,7.97271728515625,-1.04522705078125,-2.67791748046875
116664,6.140003,0.9105608,0.9107166,39472.73496536692,39472.57682326672,43.42272,41.647774,3.298747252747253,0.9127252747252748,3.837758241758242,3.3562417582417585,-0.998967032967033,-6.058483516483517,2.05230712890625,-8.52203369140625,-1.09100341796875,4.6234130859375,-1.06048583984375,0.4730224609375
116665,6.180124,0.9099131,0.9100529,39473.39263703271,39473.25065267045,43.42038,41.65242,2.759736263736264,0.4096483516483516,-1.4876703296703295,2.709428571428572,0.539010989010989,-0.6611868131868132,12.58087158203125,-2.1820068359375,-1.01470947265625,12.45880126953125,-0.12969970703125,0.14495849609375
116666,6.220002,0.9093141,0.9094037,39474.001196405254,39473.91014584749,43.41804,41.65242,3.226879120879121,-0.3593406593406594,0.0574945054945055,2.817230769230769,-0.8552307692307692,0.5318241758241758,10.12420654296875,-2.197265625,-0.1068115234375,15.3350830078125,1.1444091796875,0.30517578125
116667,6.260002,0.9087222,0.9088314,39474.602861400555,39474.49183598422,43.41336,41.654743,2.493824175824176,-1.085208791208791,-2.105736263736264,2.055428571428572,-0.079054945054945,0.4527692307692308,11.69586181640625,-3.8299560546875,-0.60272216796875,12.3443603515625,0.79345703125,0.4119873046875
116668,6.300035,0.9081451,0.9081679,39475.18978782596,39475.1665938755,43.4157,41.647774,1.6601538461538463,-1.3654945054945056,0.2659120879120879,2.1919780219780223,0.3665274725274725,-0.2730989010989011,12.51220703125,-0.67138671875,-1.15966796875,14.53399658203125,1.7852783203125,-0.98419189453125
116669,6.340001,0.90753875,0.907521,39475.806787735986,39475.82485452435,43.4157,41.654743,3.995868131868132,-0.7114945054945055,-0.5677582417582419,2.4722637362637365,-1.4732967032967033,-1.0923956043956045,20.51544189453125,-2.38800048828125,-3.0517578125,18.40972900390625,1.9073486328125,-0.66375732421875
116670,6.380002,0.9068718,0.9069727,39476.48583763596,39476.38308113957,43.4157,41.657066,2.63756043956044,-0.114989010989011,3.3059340659340664,2.7453626373626374,-0.2659120879120879,-0.7330549450549451,20.24078369140625,-1.51824951171875,-1.983642578125,16.1285400390625,0.06103515625,-1.89208984375
116671,6.460055,0.9056448,0.9057298,39477.736155013765,39477.64949550681,43.42038,41.654743,3.147824175824176,0.6611868131868132,-2.63756043956044,3.3921758241758244,-0.8552307692307692,2.659120879120879,23.4222412109375,1.068115234375,-1.50299072265625,28.564453125,1.35040283203125,-1.68609619140625
116672,6.50006,0.9051621,0.9049605,39478.228403990106,39478.434055052516,43.4157,41.654743,3.593406593406593,0.5605714285714286,-1.617032967032967,2.2925934065934066,0.2587252747252747,0.574945054945055,29.815673828125,0.9613037109375,-2.11334228515625,24.10888671875,-0.823974609375,-1.56402587890625
116673,6.540024,0.90443945,0.9043762,39478.965747209186,39479.03030593493,43.41804,41.657066,1.7392087912087917,-0.0287472527472527,3.3634285714285714,3.27,-0.2659120879120879,1.078021978021978,23.2391357421875,1.71661376953125,-2.0294189453125,28.32794189453125,1.56402587890625,-1.373291015625
116674,6.580026,0.9038647,0.9037055,39479.55252391517,39479.715108622775,43.4157,41.65242,4.089296703296704,0.2156043956043956,-0.7977362637362638,2.7022417582417586,1.7751428571428571,0.6683736263736263,19.37103271484375,-2.349853515625,-1.57928466796875,20.7061767578125,-1.82342529296875,-2.8076171875
116675,6.620011,0.9032391,0.9032702,39480.19155815642,39480.15978184591,43.41804,41.657066,2.4219560439560444,1.3942417582417583,3.478417582417583,2.817230769230769,0.0143736263736263,-0.2802857142857143,25.7110595703125,1.129150390625,-1.25885009765625,21.84295654296875,-1.5716552734375,-0.81634521484375
116676,6.659983,0.9026983,0.9027679,39480.74426025831,39480.673113449186,43.42038,41.65242,1.688901098901099,1.0923956043956045,1.6601538461538463,3.8449450549450552,0.1221758241758241,-0.1078021978021978,20.8282470703125,0.40435791015625,-2.52532958984375,21.1181640625,0.22125244140625,-0.43487548828125
116677,6.70002,0.90207266,0.90209945,39481.38400414617,39481.35660285415,43.42272,41.654743,2.925032967032968,0.8696043956043957,0.3665274725274725,3.528725274725275,-0.7546153846153847,0.6180659340659341,19.18792724609375,-2.8076171875,-1.9989013671875,18.83697509765625,-0.244140625,-1.02996826171875
116678,6.739984,0.9014882,0.9015225,39481.9819643634,39481.94686341181,43.4274,41.654743,1.106769230769231,0.0287472527472527,2.213538461538462,2.917846153846154,0.5030769230769231,1.1355164835164837,22.56011962890625,0.518798828125,-1.13677978515625,19.989013671875,-0.5035400390625,-0.946044921875
116679,6.779998,0.9008941,0.9009455,39482.59010904858,39482.53748110878,43.4274,41.654743,0.6180659340659341,-1.566725274725275,-1.918879120879121,2.1344835164835168,0.5677582417582419,0.2802857142857143,17.791748046875,0.41961669921875,-1.24359130859375,20.904541015625,1.25885009765625,-0.4730224609375
116680,6.820003,0.90016664,0.9003658999999999,39483.33520880661,39483.1310685961,43.4274,41.659393,2.2854065934065937,1.085208791208791,1.7967032967032968,3.0975164835164835,-1.1211428571428572,-0.2084175824175824,17.72308349609375,-1.953125,-1.31988525390625,15.52581787109375,-0.43487548828125,0.1220703125
116681,6.860004,0.8995652000000001,0.89972414,39483.95160105086,39483.78867725279,43.42974,41.657066,2.084175824175824,1.1570769230769231,0.6036923076923078,2.486637362637363,-0.1509230769230769,0.9127252747252748,14.58740234375,-0.579833984375,-0.457763671875,15.838623046875,-2.044677734375,-0.40435791015625
116682,6.90002,0.898942,0.89915445,39484.590646383374,39484.372754392454,43.4274,41.654743,2.249472527472528,0.0503076923076923,0.9414725274725276,2.824417582417582,-0.539010989010989,-0.4815164835164835,16.7999267578125,-0.92315673828125,-0.25177001953125,15.1519775390625,-1.495361328125,1.3275146484375
116683,6.939988,0.8983939999999999,0.89840664,39485.15287616907,39485.139904820964,43.43208,41.659393,1.609846153846154,0.0934285714285714,0.1724835164835164,3.104703296703297,0.6180659340659341,1.1642637362637362,16.99066162109375,2.05230712890625,-0.09918212890625,15.44189453125,-0.3662109375,-0.22125244140625
116684,6.980019,0.8978677,0.8979138000000001,39485.69310394684,39485.64577373177,43.44144,41.659393,2.7741098901098904,0.8983516483516484,-0.9270989010989013,2.7741098901098904,-0.963032967032967,-0.4024615384615385,14.6026611328125,-1.94549560546875,0.51116943359375,17.64678955078125,-1.07574462890625,0.030517578125
116685,7.019988,0.8973173,0.89723125,39486.25834385069,39486.346739307985,43.439102,41.654743,1.6673406593406594,-0.0862417582417582,-0.4312087912087912,3.0615824175824176,0.2443516483516483,0.6324395604395605,14.2059326171875,-3.13568115234375,-0.81634521484375,14.34326171875,0.54931640625,0.26702880859375
116686,7.06004,0.896665,0.8966972,39486.92859480568,39486.89549941657,43.43442,41.66404,3.593406593406593,0.8624175824175825,-1.5595384615384615,1.5523516483516484,0.0143736263736263,-0.079054945054945,12.71820068359375,-2.32696533203125,-1.64031982421875,17.15850830078125,-2.532958984375,-0.64849853515625
116687,7.10002,0.89618484,0.8961396,39487.42222087294,39487.46874066488,43.43676,41.661716,3.492791208791209,0.3018461538461539,-2.055428571428572,2.6303736263736264,-0.7402417582417582,-0.079054945054945,14.01519775390625,-1.0833740234375,-0.25177001953125,15.0146484375,-0.5340576171875,-0.67901611328125
116688,7.140001,0.8955713000000001,0.8955841,39488.053279311855,39488.040110257956,43.439102,41.666363,4.211472527472528,1.4086153846153846,-0.6252527472527473,0.9342857142857144,-1.2576923076923077,0.0287472527472527,12.2833251953125,0.030517578125,-0.64849853515625,15.17486572265625,1.94549560546875,0.8392333984375
116689,7.180001,0.8950184,0.8949904,39488.62226623427,39488.651088479986,43.44144,41.66404,1.4301758241758245,0.6755604395604397,3.183758241758242,2.881912087912088,0.5030769230769231,0.0934285714285714,15.83099365234375,1.82342529296875,-0.7476806640625,12.5732421875,-0.09918212890625,1.24359130859375
116690,7.220003,0.8944583,0.8944542,39489.19895290783,39489.20317540218,43.44612,41.666363,1.6673406593406594,-0.8911648351648351,1.8541978021978025,2.0482417582417582,-0.3952747252747253,0.5246373626373626,11.474609375,1.7547607421875,0.762939453125,10.2691650390625,-0.06866455078125,-0.274658203125
116691,7.259983,0.8938399,0.8938652,39489.836005797006,39489.80993566899,43.44612,41.666363,2.1344835164835168,1.0636483516483517,-2.4003956043956043,2.026681318681318,0.2946593406593407,-0.2874725274725275,7.904052734375,0.70953369140625,-0.06103515625,11.11602783203125,1.02996826171875,-0.5340576171875
116692,7.300018,0.8934011000000001,0.8933391,39490.288257874294,39490.35217307896,43.439102,41.661716,1.990747252747253,0.7546153846153847,2.4075824175824176,3.0040879120879125,2.486637362637363,2.112923076923077,6.317138671875,1.434326171875,-1.03759765625,3.12042236328125,-1.33514404296875,-1.19781494140625
116693,7.339986,0.8927414,0.8927594999999999,39490.968520555594,39490.9498509535,43.448463,41.666363,3.9599340659340654,0.3449670329670329,-1.4804835164835164,1.228945054945055,-1.7176483516483516,-0.3880879120879121,6.6375732421875,2.2125244140625,0.80108642578125,9.26971435546875,1.52587890625,-0.45013427734375
116694,7.379986,0.8922928999999999,0.8922093,39491.43123264747,39491.51750259054,43.448463,41.661716,1.46610989010989,0.6827472527472528,2.148857142857143,3.234065934065934,0.3880879120879121,-0.194043956043956,4.0740966796875,-1.53350830078125,-1.953125,4.02069091796875,-0.0762939453125,0.54931640625
116695,7.419984,0.8916285,0.8916658000000001,39492.117032428585,39492.07852006504,43.443783,41.666363,2.479450549450549,1.7176483516483516,-0.4024615384615385,2.1919780219780223,-0.4743296703296704,-0.919912087912088,3.39508056640625,1.4495849609375,-0.84686279296875,3.92913818359375,0.091552734375,0.3814697265625
116696,7.460061,0.89106586,0.89106016,39492.6981182499,39492.70400664099,43.45314,41.66404,0.3018461538461539,-0.5102637362637363,1.013340659340659,4.276153846153846,0.7402417582417582,2.1632307692307693,0.93841552734375,-1.54876708984375,-2.06756591796875,-1.68609619140625,1.0833740234375,-1.45721435546875
116697,7.500162,0.8905397,0.8905480499999999,39493.24179697867,39493.23316693092,43.4508,41.666363,1.0564615384615386,0.114989010989011,0.8121098901098901,1.1642637362637362,1.2217582417582418,0.424021978021978,-3.0517578125,-2.288818359375,-1.30462646484375,0.69427490234375,-0.48828125,-0.9765625
116698,7.540429,0.8899262,0.8900045,39493.87605227066,39493.795083601224,43.45314,41.671013,0.2443516483516483,-0.4815164835164835,-0.7905494505494507,3.6221538461538474,1.185824175824176,0.804923076923077,-1.70135498046875,-2.3040771484375,-1.71661376953125,-1.4801025390625,-0.12969970703125,-0.6561279296875
116699,7.580004,0.8894072000000001,0.8894589999999999,39494.41288703484,39494.35929560184,43.460163,41.668686,2.8531648351648355,-1.0061538461538462,-0.2730989010989011,1.8829450549450557,-0.1365494505494505,-0.0215604395604395,-3.4332275390625,-3.7994384765625,-1.60980224609375,-0.63323974609375,-1.54876708984375,0.946044921875
116700,7.620005,0.8888351,0.8889275,39495.0049404963,39494.909296918944,43.45314,41.673336,0.8983516483516484,-0.804923076923077,2.0194945054945057,2.148857142857143,0.2227912087912087,0.0071868131868131,-8.5601806640625,-1.54876708984375,0.84686279296875,-6.805419921875,-2.25830078125,-2.4871826171875
116701,7.660003,0.8882822,0.8883894,39495.577417580746,39495.466399300014,43.455482,41.668686,2.709428571428572,0.9055384615384616,0.5821318681318681,2.860351648351649,0.1652967032967033,2.249472527472528,-9.08660888671875,-3.33404541015625,-2.57110595703125,-9.48333740234375,-2.83050537109375,-1.6632080078125
116702,7.700038,0.8877752999999999,0.8878171,39496.102519468055,39496.05920932077,43.4625,41.671013,1.8182637362637364,0.4527692307692308,1.193010989010989,2.7741098901098904,-1.2505054945054943,0.9774065934065936,-10.36834716796875,-1.373291015625,-1.50299072265625,-7.2784423828125,-0.32806396484375,-1.56402587890625
116703,7.740003,0.8872466400000001,0.8873263,39496.650421405124,39496.56784506321,43.464844,41.677982,4.369582417582418,0.5605714285714286,-0.8767912087912089,0.804923076923077,-1.2936263736263738,2.730989010989011,-21.91162109375,-4.79888916015625,-1.65557861328125,-17.12799072265625,-2.55584716796875,-0.701904296875
116704,7.780004,0.8867278999999999,0.8867548399999999,39497.188299284215,39497.16035911512,43.460163,41.668686,0.4887032967032967,0.3162197802197802,1.0708351648351648,1.5092307692307694,-0.5605714285714286,-2.95378021978022,-18.6767578125,-2.8076171875,-0.46539306640625,-20.1568603515625,-3.59344482421875,-1.2054443359375
116705,7.820003,0.8861555499999999,0.88623266,39497.782060717975,39497.70204796098,43.464844,41.677982,0.9270989010989013,-1.1786373626373627,-4.225846153846154,1.2217582417582418,0.2874725274725275,-1.688901098901099,-14.85443115234375,-4.2572021484375,-0.22125244140625,-13.7786865234375,0.823974609375,-2.12860107421875
116706,7.900038,0.8850718,0.8852925,39498.907204637966,39498.67798456332,43.4625,41.682632,2.7381758241758245,0.8552307692307692,-3.988681318681319,1.9404395604395603,0.1796703296703297,0.4168351648351648,-7.4310302734375,2.838134765625,-1.13677978515625,-9.02557373046875,0.00762939453125,-1.068115234375
116707,7.940004,0.8845552999999999,0.8847211,39499.44382495494,39499.27153855357,43.464844,41.673336,2.1416703296703297,0.1581098901098901,2.227912087912088,1.688901098901099,-0.3305934065934066,0.2227912087912087,-14.71710205078125,-0.91552734375,-1.10626220703125,-15.87677001953125,-0.00762939453125,-1.10626220703125
116708,7.980001,0.8841067,0.8841775999999999,39499.91010613215,39499.83639892647,43.464844,41.677982,1.5092307692307694,0.9774065934065936,-5.835692307692308,2.6447472527472526,1.185824175824176,-0.6971208791208792,-12.03155517578125,1.6937255859375,-2.8839111328125,-7.65228271484375,0.6103515625,-1.9378662109375
116709,8.020003,0.883595,0.8836248,39500.4422082843,39500.41121327781,43.469524,41.677982,2.659120879120879,0.0071868131868131,2.508197802197802,2.213538461538462,-0.5318241758241758,0.7905494505494507,-7.4920654296875,2.4261474609375,-1.42669677734375,-10.33782958984375,2.73895263671875,-1.65557861328125
116710,8.060004,0.8830542,0.8831080499999999,39501.00484195593,39500.94880536907,43.471863,41.677982,2.4291428571428573,0.7689890109890111,-1.3439340659340662,2.184791208791209,-1.0708351648351648,-1.631406593406593,-17.3797607421875,-1.64794921875,-0.823974609375,-13.13018798828125,-0.6256103515625,-1.13677978515625
116711,8.100075,0.88256195,0.8825792,39501.51720812714,39501.499249280954,43.474205,41.677982,1.6026593406593408,0.1724835164835164,-1.1427032967032968,1.4373626373626376,0.8983516483516484,-0.539010989010989,-18.6309814453125,2.26593017578125,-2.26593017578125,-15.40374755859375,-0.0152587890625,-1.53350830078125
116712,8.140064,0.8820260000000001,0.8820819,39502.075323316036,39502.017098645054,43.47888,41.67566,1.5236043956043956,-0.1724835164835164,0.0359340659340659,1.3439340659340662,-0.4887032967032967,-0.194043956043956,-16.19720458984375,-1.59454345703125,-1.50299072265625,-17.58575439453125,-0.86212158203125,-1.0223388671875
116713,8.180176,0.8814004,0.88147086,39502.72714358675,39502.65371173712,43.481224,41.682632,1.969186813186813,0.2371648351648352,3.4065494505494507,2.2854065934065937,0.5893186813186814,-0.0718681318681318,-19.32525634765625,-0.58746337890625,-1.85394287109375,-24.43695068359375,0.518798828125,-1.8157958984375
116714,8.217683,0.8810344999999999,0.8810909,39503.10855290288,39503.049753929256,43.474205,41.684956,1.6817142857142855,-0.7546153846153847,-1.566725274725275,1.6673406593406594,0.3449670329670329,-0.2874725274725275,-21.49200439453125,0.69427490234375,-1.1138916015625,-22.98736572265625,0.2593994140625,-2.655029296875
116715,8.260059,0.880411,0.8804567999999999,39503.758776639595,39503.71100092672,43.483562,41.680305,2.508197802197802,0.8264835164835166,-0.5965054945054945,1.8182637362637364,-0.6396263736263736,0.6468131868131869,-25.96282958984375,-1.15203857421875,-0.2593994140625,-25.39825439453125,-0.86212158203125,-2.12860107421875
116716,8.34007,0.8794460000000001,0.8794446,39504.765872847805,39504.767334569886,43.485905,41.684956,2.342901098901099,1.8757582417582417,2.759736263736264,2.4003956043956043,-0.1221758241758241,1.193010989010989,-23.82659912109375,-3.11279296875,-1.68609619140625,-23.93341064453125,-1.19781494140625,0.52642822265625
116717,8.380057,0.87887625,0.8789083999999999,39505.360897233244,39505.327312730005,43.485905,41.68728,2.2422857142857144,0.3305934065934066,2.6806813186813185,1.0492747252747252,0.1078021978021978,0.9270989010989013,-22.369384765625,-0.6866455078125,0.0152587890625,-24.3072509765625,-3.1890869140625,0.02288818359375
116718,8.420046,0.8783671000000001,0.87840375,39505.89289770095,39505.85459452345,43.485905,41.68728,3.0400219780219784,1.5307912087912088,-0.7043076923076923,2.5441318681318683,1.4158021978021975,0.1221758241758241,-35.75897216796875,-7.171630859375,-0.946044921875,-26.14593505859375,-3.86810302734375,-0.35858154296875
116719,8.460102,0.8779233,0.8780044,39506.35681900115,39506.27202785785,43.488243,41.69193,2.7022417582417586,0.4743296703296704,-1.8901318681318684,0.6180659340659341,-1.6673406593406594,-1.0708351648351648,-24.11651611328125,-2.81524658203125,0.0,-22.4761962890625,-2.716064453125,0.26702880859375
116720,8.500083,0.8774358,0.8775025,39506.86664051,39506.796872928455,43.492924,41.68728,-1.494857142857143,-1.7967032967032968,3.729956043956044,0.955846153846154,1.5236043956043956,-1.2145714285714286,-27.38189697265625,-4.8675537109375,1.12152099609375,-30.1513671875,-3.082275390625,-1.27410888671875
116721,8.540047,0.87689766,0.8769543,39507.429687104755,39507.3704124784,43.490585,41.6896,2.3141538461538462,-0.3809010989010989,-0.2587252747252747,0.9414725274725276,-0.5821318681318681,1.6960879120879122,-17.47894287109375,2.5787353515625,0.4730224609375,-16.6168212890625,0.18310546875,0.89263916015625
116722,8.580047,0.8764444,0.87646164,39507.9041423284,39507.886092521854,43.488243,41.6896,2.486637362637363,-0.1293626373626373,-2.968153846153846,2.450703296703297,0.2874725274725275,0.9055384615384616,-19.073486328125,-1.373291015625,1.007080078125,-19.34051513671875,1.6632080078125,-0.55694580078125
116723,8.620048,0.87598586,0.8759449,39508.384326657964,39508.42722998219,43.495266,41.6896,1.185824175824176,-0.2084175824175824,-1.1427032967032968,2.889098901098901,0.574945054945055,1.3439340659340662,-21.5911865234375,-1.4495849609375,0.0457763671875,-20.17974853515625,-1.28936767578125,-0.09918212890625
116724,8.660047,0.87550836,0.8755409,39508.88458232037,39508.850484585884,43.492924,41.69193,1.9476263736263737,-0.4168351648351648,-0.3665274725274725,1.7320219780219783,-0.1509230769230769,-0.1868571428571429,-19.64569091796875,-2.25830078125,-0.60272216796875,-17.974853515625,-2.05230712890625,0.8544921875
116725,8.700082,0.8750282,0.87506484,39509.38784756477,39509.349436572695,43.495266,41.694252,1.8685714285714283,-0.5965054945054945,-1.4301758241758245,1.566725274725275,-0.4024615384615385,2.4435164835164835,-8.35418701171875,2.2735595703125,-0.12969970703125,-10.55908203125,0.70953369140625,0.0457763671875
116726,8.740076,0.8745769999999999,0.874539,39509.8609630836,39509.90081782813,43.499943,41.6896,2.8387912087912093,-0.8264835164835166,0.0359340659340659,1.6960879120879122,-0.8767912087912089,0.0503076923076923,-17.76123046875,-6.89697265625,0.2288818359375,-19.10400390625,-2.75421142578125,-0.1373291015625
116727,8.780047,0.8740948399999999,0.8740658,39510.36676087292,39510.3972317649,43.495266,41.68728,2.968153846153846,0.8121098901098901,1.3295604395604397,1.6457802197802198,-0.229978021978022,-0.4168351648351648,-15.44189453125,-3.01361083984375,-1.2664794921875,-13.00811767578125,-3.1585693359375,-0.4425048828125
116728,8.820047,0.8735708999999999,0.8735822999999999,39510.91664310421,39510.90467580592,43.499943,41.69193,1.80389010989011,0.6683736263736263,2.2422857142857144,1.4014285714285717,0.5102637362637363,-0.7402417582417582,-13.20648193359375,-2.44903564453125,-0.3204345703125,-16.13616943359375,-3.56292724609375,-0.640869140625
116729,8.860065,0.8731446,0.8731182000000001,39511.36424787947,39511.39197306422,43.492924,41.694252,0.7833626373626373,-0.7546153846153847,-2.673494505494505,1.9404395604395603,0.3593406593406594,-0.0359340659340659,-8.68988037109375,-1.77764892578125,0.274658203125,-7.37762451171875,-0.48828125,-0.5340576171875
116730,8.900085,0.8725453,0.87262555,39511.99379783528,39511.909476879344,43.502285,41.694252,1.609846153846154,0.0503076923076923,2.5944395604395605,2.0769890109890112,0.0862417582417582,-0.1221758241758241,-10.80322265625,-0.09918212890625,-0.4119873046875,-14.739990234375,-3.12042236328125,-1.5716552734375
116731,8.94023,0.8721015,0.87218555,39512.460224528106,39512.371874574,43.504623,41.696575,1.5451648351648353,-0.1868571428571429,0.0934285714285714,1.9404395604395603,0.998967032967033,0.8767912087912089,-8.1329345703125,0.4119873046875,-0.92315673828125,-6.84356689453125,-1.64031982421875,-1.2969970703125
116732,8.980069,0.8716799000000001,0.8717318,39512.90349741999,39512.84892006504,43.499943,41.69193,1.8757582417582417,-0.1437362637362637,-1.911692307692308,1.185824175824176,-0.5605714285714286,-0.1652967032967033,-8.55255126953125,-1.983642578125,-1.25885009765625,-6.52313232421875,-0.762939453125,-0.701904296875
116733,9.020037,0.8711607000000001,0.8712346000000001,39513.44962615829,39513.37187718997,43.506966,41.6896,1.494857142857143,0.2156043956043956,0.2012307692307692,1.609846153846154,-0.5533846153846155,-1.0995824175824176,-7.75909423828125,-2.55584716796875,-0.45013427734375,-8.0413818359375,-2.5634765625,-1.42669677734375
116734,9.060031,0.8707223399999999,0.8707843,39513.91092729087,39513.84571326659,43.499943,41.6989,1.4373626373626376,0.2227912087912087,-0.2443516483516483,1.6745274725274726,0.2443516483516483,1.0492747252747252,-4.00543212890625,-0.4425048828125,-2.6092529296875,-4.4097900390625,-0.6866455078125,-0.75531005859375
116735,9.100114,0.87029266,0.8703276600000001,39514.36327669739,39514.326423374696,43.509304,41.6989,1.1427032967032968,-0.8121098901098901,-2.616,1.8757582417582417,0.6324395604395605,-0.3162197802197802,-2.3956298828125,-2.38800048828125,-1.5411376953125,-2.90679931640625,-0.87738037109375,-2.1820068359375
116736,9.146445,0.8698294,0.869688,39514.85118037516,39515.00014423086,43.513985,41.70355,1.013340659340659,-0.1724835164835164,0.3305934065934066,1.3798681318681318,-0.6611868131868132,-0.1796703296703297,-2.95257568359375,-4.73785400390625,-1.07574462890625,0.1983642578125,-0.74005126953125,-1.2359619140625
116737,9.180016,0.8694199,0.8694671,39515.28263945039,39515.23290000318,43.509304,41.70122,1.5954725274725277,-0.0287472527472527,-1.8973186813186813,1.3942417582417583,-0.2874725274725275,-0.5893186813186814,1.2664794921875,-2.8076171875,-2.3651123046875,3.53240966796875,-1.8157958984375,-2.532958984375
116738,9.220231,0.8688819,0.8689819500000001,39515.84973939492,39515.74425626235,43.506966,41.6989,1.5882857142857143,-0.3018461538461539,-1.7823296703296705,1.085208791208791,-0.8767912087912089,-0.9845934065934068,0.6256103515625,-4.06646728515625,-1.45721435546875,3.7841796875,-1.52587890625,-2.79998779296875
116739,9.260034,0.8684213000000001,0.8685419500000001,39516.335478792964,39516.20822359452,43.506966,41.70122,2.2782197802197803,-0.1796703296703297,-0.6180659340659341,1.5595384615384615,-0.3952747252747253,0.1293626373626373,-0.0152587890625,-1.220703125,-1.64794921875,0.9002685546875,-1.54876708984375,-1.94549560546875
116740,9.300153,0.86793375,0.86806875,39516.84986643625,39516.70741181782,43.511646,41.6989,2.069802197802198,0.2443516483516483,-2.580065934065934,1.5307912087912088,0.883978021978022,0.0646813186813186,-0.48065185546875,-0.8697509765625,-0.83160400390625,0.9918212890625,-0.823974609375,-1.1138916015625
116741,9.340032,0.8675067,0.8676048,39517.3006160533,39517.1970559911,43.516327,41.70122,1.7392087912087917,0.6755604395604397,-2.580065934065934,1.4732967032967033,0.2012307692307692,-1.078021978021978,2.25067138671875,-1.15966796875,-1.47247314453125,4.09698486328125,-3.07464599609375,-0.60272216796875
116742,9.380037,0.8670825,0.8671481,39517.74853541388,39517.67925575998,43.516327,41.70122,1.228945054945055,-0.2371648351648352,1.2217582417582418,1.4301758241758245,-0.2802857142857143,-0.8911648351648351,9.80377197265625,-3.173828125,-0.946044921875,6.69097900390625,-4.150390625,-0.51116943359375
116743,9.420033,0.8666247,0.8666046000000001,39518.2321326517,39518.2533700357,43.511646,41.70587,0.3952747252747253,0.0215604395604395,1.0564615384615386,1.954813186813187,1.3583076923076924,0.2515384615384615,13.275146484375,-1.15966796875,0.1220703125,11.566162109375,-1.07574462890625,0.37384033203125
116744,9.460118,0.8662117,0.8661509,39518.668582898696,39518.732849366104,43.523346,41.70122,1.3942417582417583,0.114989010989011,-0.9414725274725276,1.1283296703296704,-0.8336703296703297,-0.1293626373626373,14.373779296875,-1.18255615234375,-0.518798828125,13.13018798828125,-1.28173828125,0.89263916015625
116745,9.500067,0.865766,0.8657155000000001,39519.1397789357,39519.1931801492,43.518665,41.70587,1.4373626373626376,0.3234065934065934,-0.3952747252747253,0.883978021978022,1.631406593406593,1.458923076923077,16.01409912109375,1.51824951171875,1.9378662109375,14.28985595703125,-0.69427490234375,0.91552734375
116746,9.540034,0.8653445,0.8652994500000001,39519.58557136473,39519.633228143546,43.513985,41.708195,1.8901318681318684,0.6899340659340659,-1.7463956043956046,1.6242197802197802,-1.1355164835164837,0.1221758241758241,11.53564453125,-2.09808349609375,0.55694580078125,15.55633544921875,-0.26702880859375,1.28173828125
116747,9.580034,0.8648522999999999,0.86484586,39520.106361051585,39520.11317671264,43.516327,41.70355,1.3870549450549452,0.2946593406593407,-0.7833626373626373,1.3511208791208793,1.193010989010989,-1.0923956043956045,11.49749755859375,-2.5482177734375,1.21307373046875,14.32037353515625,-1.02996826171875,2.06756591796875
116748,9.620046,0.8643525999999999,0.8644178,39520.63533193842,39520.56629867908,43.521004,41.70587,-0.1437362637362637,0.0574945054945055,2.43632967032967,1.8182637362637364,0.4743296703296704,-1.0564615384615386,10.49041748046875,-2.38037109375,1.89208984375,11.8408203125,-1.09100341796875,1.67083740234375
116749,9.660033,0.86389664,0.8639372999999999,39521.118216766874,39521.075147379444,43.523346,41.70587,1.5523516483516484,0.2874725274725275,-1.7751428571428571,1.631406593406593,-1.4014285714285717,-0.1868571428571429,12.6800537109375,-1.30462646484375,0.79345703125,14.32037353515625,-0.885009765625,2.3040771484375
116750,9.700067,0.8634948,0.8635453,39521.543956869864,39521.490444485935,43.516327,41.708195,0.8911648351648351,0.309032967032967,0.5246373626373626,1.451736263736264,0.4958901098901099,0.1581098901098901,12.51220703125,-0.244140625,0.98419189453125,12.27569580078125,-0.45013427734375,1.007080078125
116751,9.740034,0.86308266,0.8631443,39521.98077625809,39521.91543444862,43.516327,41.70587,1.422989010989011,-0.0071868131868131,0.6468131868131869,1.185824175824176,-0.309032967032967,0.0,11.39068603515625,-0.2899169921875,1.4190673828125,10.7879638671875,-0.45013427734375,1.31988525390625
116752,9.780066,0.8626361,0.8626967999999999,39522.454267438436,39522.38989508391,43.523346,41.710518,1.300813186813187,0.1509230769230769,1.0636483516483517,1.566725274725275,0.4743296703296704,0.3809010989010989,12.7410888671875,1.1444091796875,2.02178955078125,10.894775390625,0.26702880859375,2.20489501953125
116753,9.820059,0.862292,0.86229875,39522.81925485725,39522.81209398755,43.521004,41.70355,1.4086153846153846,0.1796703296703297,0.4958901098901099,1.451736263736264,0.8192967032967032,0.6755604395604397,11.66534423828125,1.5411376953125,2.3345947265625,9.98687744140625,0.213623046875,0.9307861328125
116754,9.860064,0.8617998,0.8618422,39523.34153722983,39523.296536313064,43.523346,41.70355,1.2936263736263738,0.0431208791208791,-0.2730989010989011,1.5164175824175825,0.2874725274725275,0.998967032967033,10.955810546875,0.70953369140625,0.90789794921875,12.19940185546875,0.95367431640625,0.67138671875
116755,9.90008,0.8614044500000001,0.8614668,39523.76122525012,39523.695026583315,43.525684,41.708195,1.034901098901099,-0.7761758241758242,-0.4671428571428571,1.4301758241758245,0.2946593406593407,0.5893186813186814,13.336181640625,1.54876708984375,-0.2899169921875,11.1846923828125,1.312255859375,0.31280517578125
116756,9.940048,0.8609635000000001,0.86098625,39524.229504464645,39524.205339713815,43.523346,41.708195,0.8983516483516484,-0.4671428571428571,-0.0431208791208791,1.5595384615384615,0.1796703296703297,-0.1868571428571429,10.6658935546875,-0.63323974609375,-0.823974609375,11.57379150390625,-0.2593994140625,0.3662109375
116757,9.980045,0.8605635,0.8606378,39524.65446368874,39524.57551541956,43.523346,41.708195,1.3439340659340662,-0.8767912087912089,-0.9702197802197802,1.1283296703296704,-0.4096483516483516,0.3377802197802198,12.4969482421875,-2.03704833984375,0.0457763671875,12.18414306640625,-0.7781982421875,-0.06866455078125
116758,10.020251,0.860226,0.8601527,39525.01314745681,39525.0910633181,43.530365,41.70587,1.3798681318681318,-0.2012307692307692,0.0503076923076923,1.4445494505494507,-0.2659120879120879,0.3018461538461539,14.4500732421875,0.54168701171875,-0.66375732421875,13.81683349609375,0.732421875,0.518798828125
116759,10.060087,0.859799,0.8596692,39525.467112160506,39525.60514510491,43.535046,41.710518,1.4014285714285717,-0.9414725274725276,-2.93221978021978,0.9702197802197802,0.2515384615384615,-0.9774065934065936,14.190673828125,-1.52587890625,-0.5035400390625,15.380859375,-1.1138916015625,-0.2288818359375
116760,10.10015,0.8593776,0.85933734,39525.91530223777,39525.95813103848,43.530365,41.71284,0.7977362637362638,-0.5318241758241758,1.5236043956043956,0.998967032967033,-0.0359340659340659,0.4024615384615385,17.333984375,-1.02996826171875,-0.732421875,17.87567138671875,-0.23651123046875,-1.65557861328125
116761,10.140086,0.85900375,0.8588658,39526.31306836075,39526.45987877308,43.537388,41.71749,1.2864395604395606,-0.1006153846153846,0.9917802197802198,0.7546153846153847,1.020527472527473,0.2730989010989011,17.96722412109375,1.59454345703125,-1.4495849609375,20.782470703125,-0.457763671875,-1.36566162109375
116762,10.180063,0.85858234,0.8585294,39526.76160510453,39526.817965528186,43.532707,41.71749,0.9917802197802198,-0.1293626373626373,1.969186813186813,1.7104615384615385,-0.5174505494505495,1.2217582417582418,18.06640625,-0.1983642578125,-0.8087158203125,17.69256591796875,-0.8697509765625,-2.14385986328125
116763,10.220045,0.8581749000000001,0.8582125,39527.19544210355,39527.15539911092,43.535046,41.715168,1.5523516483516484,0.2659120879120879,-0.6468131868131869,0.9055384615384616,-0.3449670329670329,0.5821318681318681,20.0653076171875,0.3204345703125,-1.6326904296875,19.99664306640625,-0.762939453125,-0.8697509765625
116764,10.26005,0.85766305,0.8577064,39527.74068998597,39527.69450121549,43.539726,41.708195,0.7546153846153847,-0.3521538461538461,-0.6324395604395605,0.6108791208791209,1.078021978021978,0.4527692307692308,19.46258544921875,-0.579833984375,-2.06756591796875,18.44024658203125,-1.80816650390625,-1.4495849609375
116765,10.297539,0.8573889,0.8573716,39528.032836458064,39528.051274646954,43.542065,41.715168,1.6529670329670332,-0.1509230769230769,-0.1221758241758241,1.3367472527472526,0.2946593406593407,0.2946593406593407,16.19720458984375,-0.03814697265625,-0.8697509765625,14.6636962890625,-1.52587890625,-0.70953369140625
116766,10.380052,0.856507,0.8565636999999999,39528.97314174469,39528.912663118375,43.537388,41.719814,1.4158021978021975,0.2443516483516483,-0.0215604395604395,1.300813186813187,-0.8336703296703297,0.424021978021978,17.88330078125,-0.96893310546875,-2.0751953125,17.57049560546875,0.03814697265625,-2.05230712890625
116767,10.420047,0.8560996000000001,0.8561657,39529.40778722792,39529.337255311184,43.539726,41.71284,1.2936263736263738,0.1581098901098901,-0.459956043956044,0.6468131868131869,0.5174505494505495,-0.8696043956043957,16.80755615234375,-1.38092041015625,-0.030517578125,16.021728515625,-1.79290771484375,-1.96075439453125
116768,10.500103,0.8553695,0.8554178,39530.187132937746,39530.135558437614,43.544407,41.71749,1.5595384615384615,0.4815164835164835,0.229978021978022,0.8264835164835166,0.2515384615384615,-0.4168351648351648,12.41302490234375,-2.08282470703125,-0.4730224609375,13.54217529296875,-0.6561279296875,-0.89263916015625
116769,10.540046,0.8549089999999999,0.85501836,39530.678971003246,39530.56214938908,43.544407,41.722137,1.0708351648351648,0.2802857142857143,0.6683736263736263,0.7905494505494507,0.0359340659340659,-0.424021978021978,15.03753662109375,-1.4801025390625,-0.823974609375,12.8173828125,-1.77764892578125,-1.0223388671875
116770,10.580047,0.8545668,0.8546219500000001,39531.04459743729,39530.98566394909,43.549088,41.722137,1.0995824175824176,-0.3809010989010989,1.020527472527473,0.5533846153846155,0.6108791208791209,-0.0071868131868131,11.32965087890625,-1.3275146484375,0.5645751953125,9.59014892578125,-1.80816650390625,-0.67138671875
116771,10.620047,0.8542003,0.8542330499999999,39531.436318907385,39531.40130961071,43.55377,41.719814,1.0564615384615386,-0.4383956043956044,0.9270989010989013,0.6683736263736263,-0.1581098901098901,-0.2443516483516483,12.7716064453125,-1.5106201171875,0.16021728515625,9.20867919921875,-2.6397705078125,0.6866455078125
116772,10.660046,0.8538153999999999,0.8537525,39531.84785314704,39531.91511996899,43.549088,41.719814,1.020527472527473,-0.459956043956044,0.9342857142857144,1.3942417582417583,-0.9917802197802198,0.2730989010989011,11.41357421875,-0.92315673828125,-0.40435791015625,9.3841552734375,0.00762939453125,0.0457763671875
116773,10.70008,0.8534322,0.8533005,39532.257718999936,39532.398618054794,43.551426,41.722137,0.8336703296703297,-0.3305934065934066,0.1006153846153846,0.5965054945054945,1.2361318681318685,0.1509230769230769,9.77325439453125,-1.01470947265625,-0.31280517578125,10.15472412109375,-0.030517578125,-0.17547607421875
116774,10.740047,0.8530517999999999,0.8529641400000001,39532.664737418956,39532.75855224576,43.549088,41.722137,1.7392087912087917,1.2864395604395606,-0.2659120879120879,1.2505054945054943,-0.1078021978021978,0.4168351648351648,8.26263427734375,-0.91552734375,0.67138671875,9.23919677734375,-1.21307373046875,0.49591064453125
116775,10.780049,0.8526714999999999,0.8525752000000001,39533.07179577139,39533.17489487668,43.546745,41.719814,1.264879120879121,0.4168351648351648,1.078021978021978,1.1642637362637362,0.5605714285714286,0.7043076923076923,8.1024169921875,-1.190185546875,-0.244140625,5.89752197265625,-2.4261474609375,0.08392333984375
116776,10.820047,0.8523200999999999,0.85224336,39533.4480513783,39533.53023614521,43.546745,41.722137,1.1570769230769231,-0.0287472527472527,0.4096483516483516,1.106769230769231,-0.1509230769230769,-0.1652967032967033,7.6751708984375,-2.12860107421875,-0.06103515625,9.6435546875,-0.54931640625,0.09918212890625
116777,10.860067,0.8519051,0.8518754,39533.892567406765,39533.92438648125,43.551426,41.72446,1.6745274725274726,0.2443516483516483,0.3305934065934066,0.8696043956043957,-0.6180659340659341,-0.2227912087912087,5.28717041015625,-1.953125,-0.42724609375,7.71331787109375,-1.22833251953125,0.8544921875
116778,10.900085,0.8515658,0.8515,39534.25612972442,39534.326648461945,43.551426,41.72911,1.537978021978022,0.4815164835164835,1.926065934065934,1.3870549450549452,0.0,0.2659120879120879,5.5999755859375,-1.739501953125,-0.52642822265625,3.33404541015625,-1.5869140625,0.09918212890625
116779,10.940069,0.8510417,0.8511381,39534.817937114356,39534.7145804086,43.556107,41.722137,1.5307912087912088,0.4024615384615385,-0.5461978021978022,0.9414725274725276,0.0071868131868131,0.4168351648351648,5.48553466796875,-1.96075439453125,0.0152587890625,5.4168701171875,-0.29754638671875,0.26702880859375
116780,10.980047,0.8507480000000001,0.8507658,39535.13289042189,39535.11379983668,43.560787,41.722137,0.7546153846153847,0.0431208791208791,1.8829450549450557,1.228945054945055,0.6755604395604397,0.998967032967033,5.2642822265625,1.12152099609375,0.66375732421875,3.021240234375,-2.03704833984375,-0.09918212890625
116781,11.060045,0.85000875,0.8499894,39535.92602536902,39535.94679331695,43.560787,41.72446,1.0995824175824176,-0.0143736263736263,-0.8911648351648351,1.2073846153846155,-0.3018461538461539,-0.2730989010989011,3.12042236328125,-1.83868408203125,-0.99945068359375,3.3721923828125,-0.9307861328125,-0.37384033203125
116782,11.100126,0.8496330499999999,0.8496816,39536.32932473303,39536.27720006957,43.560787,41.726788,0.7833626373626373,-0.5246373626373626,-0.8552307692307692,0.963032967032967,0.0215604395604395,0.309032967032967,2.7313232421875,-1.48773193359375,-0.5950927734375,4.05120849609375,1.60980224609375,-0.60272216796875
116783,11.140056,0.8492694500000001,0.8493002000000001,39536.71977273825,39536.68674693788,43.560787,41.722137,1.2217582417582418,-0.4671428571428571,-1.954813186813187,0.7833626373626373,-0.0215604395604395,0.539010989010989,2.5634765625,-1.60980224609375,-2.349853515625,4.47845458984375,0.57220458984375,-0.31280517578125
116784,11.180047,0.8489180000000001,0.84894125,39537.09730226031,39537.07232307375,43.560787,41.72911,1.4086153846153846,-0.1796703296703297,0.0,1.1714505494505496,-0.2084175824175824,0.114989010989011,1.79290771484375,-1.983642578125,-1.77001953125,3.07464599609375,-1.13677978515625,-1.40380859375
116785,11.220024,0.8486271000000001,0.8485898,39537.40988437831,39537.449970794485,43.560787,41.733757,0.7905494505494507,0.2012307692307692,0.9342857142857144,0.7330549450549451,0.1581098901098901,0.539010989010989,2.3345947265625,-0.6256103515625,-0.0457763671875,0.22125244140625,-2.92205810546875,-0.732421875
116786,11.260025,0.8482167999999999,0.8482445,39537.85091344534,39537.821133440935,43.567806,41.72911,0.5605714285714286,-0.4671428571428571,-0.0143736263736263,0.9127252747252748,0.5677582417582419,0.114989010989011,2.1514892578125,-1.861572265625,-0.79345703125,0.4730224609375,-0.83160400390625,-0.16021728515625
116787,11.300128,0.8480304,0.8478285000000001,39538.051330779155,39538.26845396337,43.565468,41.731434,0.9270989010989013,-0.1724835164835164,0.0431208791208791,0.9270989010989013,-0.6324395604395605,0.3521538461538461,0.8087158203125,-0.48828125,-0.9307861328125,0.03814697265625,-3.01361083984375,-0.12969970703125
116788,11.340042,0.84756984,0.84744414,39538.546678013685,39538.68191030363,43.565468,41.731434,1.0923956043956045,-0.1293626373626373,0.2946593406593407,0.963032967032967,-0.539010989010989,-0.0287472527472527,0.75531005859375,0.35858154296875,-1.0528564453125,1.21307373046875,-1.8157958984375,-0.885009765625
116789,11.380153,0.8471624000000001,0.8471167,39538.98507468536,39539.03425754955,43.567806,41.736084,0.998967032967033,0.229978021978022,1.4158021978021975,0.8696043956043957,0.4887032967032967,0.4815164835164835,-1.251220703125,-1.93023681640625,-1.64031982421875,0.87738037109375,-2.02178955078125,-2.288818359375
116790,11.420043,0.8468247999999999,0.8468088,39539.34845437371,39539.36567907103,43.57483,41.738407,0.883978021978022,0.574945054945055,0.2443516483516483,0.8480439560439561,-0.0431208791208791,0.0359340659340659,0.48828125,-1.2359619140625,-1.708984375,0.4119873046875,-1.82342529296875,-2.3040771484375
116791,11.460132,0.8465005,0.8464636,39539.69762892801,39539.73736610575,43.57015,41.733757,0.9414725274725276,-0.079054945054945,-0.4815164835164835,0.9917802197802198,0.1437362637362637,0.7474285714285716,-0.54168701171875,-0.84686279296875,-1.1138916015625,-0.99945068359375,-0.9918212890625,-2.01416015625
116792,11.500087,0.8461582000000001,0.8460881,39540.066301643245,39540.14181743824,43.57483,41.738407,1.020527472527473,-0.3449670329670329,0.8696043956043957,0.8696043956043957,0.3305934065934066,1.0277142857142858,0.885009765625,-1.47247314453125,-2.9449462890625,1.94549560546875,-0.70953369140625,-2.105712890625
116793,11.540029,0.8458385,0.8457669,39540.41074220726,39540.48789755058,43.572487,41.733757,1.264879120879121,-0.3665274725274725,-0.6755604395604397,1.4732967032967033,-1.3223736263736263,-0.3018461538461539,-0.2593994140625,-0.74005126953125,-1.77001953125,-1.3427734375,-2.38037109375,-2.86865234375
116794,11.580028,0.84548414,0.8454155,39540.792648195595,39540.86663887316,43.577168,41.738407,1.042087912087912,0.2946593406593407,-0.2730989010989011,0.6036923076923078,-0.0431208791208791,-0.1796703296703297,1.25885009765625,-1.42669677734375,-2.29644775390625,-0.6561279296875,-2.105712890625,-2.14385986328125
116795,11.620028,0.8451644500000001,0.8451285000000001,39541.13730035083,39541.17606401461,43.57483,41.745377,1.2361318681318685,0.1724835164835164,0.0143736263736263,1.264879120879121,-0.883978021978022,0.0,-1.5716552734375,-1.220703125,-1.89971923828125,-2.09808349609375,-2.89154052734375,-2.105712890625
116796,11.660073,0.8448419,0.84475164,39541.48514281812,39541.58249972978,43.577168,41.743053,1.0277142857142858,-0.0215604395604395,-0.9486593406593408,0.9414725274725276,-0.1293626373626373,-0.3952747252747253,0.9613037109375,-0.40435791015625,-1.13677978515625,-2.28118896484375,-2.8076171875,-0.72479248046875
116797,11.700095,0.8444980000000001,0.8443913000000001,39541.85612788879,39541.97125629201,43.57483,41.743053,0.654,0.229978021978022,1.2792527472527473,0.5533846153846155,0.6180659340659341,0.2012307692307692,-1.71661376953125,-2.2735595703125,-1.12152099609375,-0.45013427734375,-1.91497802734375,-1.79290771484375
116798,11.740071,0.8441919999999999,0.844091,39542.18633087072,39542.29534070976,43.57951,41.743053,0.9845934065934068,0.4168351648351648,0.1365494505494505,0.8264835164835166,-0.7043076923076923,0.0646813186813186,-1.24359130859375,-2.13623046875,-1.56402587890625,-1.53350830078125,-0.6561279296875,-2.52532958984375
116799,11.780084,0.8438209,0.8437547,39542.58691297816,39542.65838724154,43.58185,41.743053,0.6611868131868132,0.3593406593406594,0.998967032967033,0.7761758241758242,-0.3521538461538461,0.5893186813186814,-3.13568115234375,-2.105712890625,-1.678466796875,-0.48828125,-1.739501953125,-1.64031982421875
116800,11.820084,0.8435074,0.8434467999999999,39542.92543021137,39542.9908778274,43.588867,41.745377,0.919912087912088,0.2946593406593407,-0.9342857142857144,1.0564615384615386,-0.0287472527472527,-0.6324395604395605,-2.51007080078125,-1.22833251953125,-0.64849853515625,-2.655029296875,-2.38800048828125,-2.105712890625
116801,11.860115,0.8432468,0.84311805,39543.20690358234,39543.34599211288,43.57951,41.743053,0.539010989010989,-0.1221758241758241,0.3880879120879121,0.7114945054945055,-0.2587252747252747,0.654,-2.64739990234375,-2.18963623046875,-1.48773193359375,-3.65447998046875,-2.20489501953125,-1.7547607421875
116802,11.900151,0.8428894,0.8427425,39543.59304493723,39543.75179677051,43.588867,41.747704,0.8624175824175825,0.1221758241758241,0.5821318681318681,0.7977362637362638,-0.459956043956044,-0.114989010989011,-4.241943359375,-1.3885498046875,-1.47247314453125,-1.24359130859375,-0.90789794921875,-0.78582763671875
116803,11.940107,0.8425773,0.8424738,39543.93035180991,39544.04223336344,43.584187,41.745377,0.6108791208791209,-0.1509230769230769,0.4958901098901099,0.7186813186813188,0.2084175824175824,0.3162197802197802,-5.10406494140625,-2.67791748046875,0.54931640625,-2.93731689453125,-0.6103515625,-1.617431640625
116804,11.980104,0.8422501,0.8421508,39544.28408688386,39544.39146186538,43.584187,41.75235,0.9845934065934068,0.2730989010989011,-0.3377802197802198,0.6827472527472528,-0.3018461538461539,-0.4743296703296704,-4.15802001953125,-0.74005126953125,-1.0986328125,-3.7841796875,-2.197265625,0.640869140625
116805,12.020108,0.8419228999999999,0.84179805,39544.63793324508,39544.772980071124,43.584187,41.750027,0.8121098901098901,-0.1293626373626373,0.3162197802197802,0.804923076923077,0.3162197802197802,0.5605714285714286,-5.74493408203125,-1.16729736328125,-1.0833740234375,-5.523681640625,-1.06048583984375,-0.79345703125
116806,12.060106,0.8416503,0.8415022,39544.932818154266,39545.0930576746,43.593548,41.75235,1.3439340659340662,0.2587252747252747,-0.4024615384615385,0.9774065934065936,-0.0718681318681318,-0.0215604395604395,-6.8206787109375,-2.81524658203125,-1.02996826171875,-6.683349609375,-1.678466796875,0.1373291015625
116807,12.100141,0.8412049,0.8412063000000001,39545.41479582169,39545.413280525536,43.588867,41.754673,0.8983516483516484,-0.0359340659340659,-1.5595384615384615,1.2864395604395606,-0.5246373626373626,0.4887032967032967,-6.87408447265625,-2.777099609375,-0.86212158203125,-6.62994384765625,-1.6937255859375,0.38909912109375
116808,12.140106,0.8409352999999999,0.84088516,39545.706636633404,39545.760921317094,43.593548,41.750027,0.6396263736263736,-0.4527692307692308,0.0646813186813186,0.8552307692307692,1.020527472527473,0.574945054945055,-4.9285888671875,-0.51116943359375,0.79345703125,-5.7830810546875,-1.5411376953125,1.06048583984375
116809,12.180122,0.8406157000000001,0.8405741400000001,39546.05270037736,39546.097709484864,43.59121,41.756996,1.4732967032967033,0.1365494505494505,-1.5523516483516484,1.085208791208791,-0.6971208791208792,-0.2659120879120879,-5.69915771484375,-2.08282470703125,0.57220458984375,-5.60760498046875,-2.35748291015625,0.67901611328125
116810,12.220105,0.8403172999999999,0.8402826600000001,39546.37590488655,39546.413430357476,43.593548,41.761646,0.6899340659340659,0.4312087912087912,0.7258681318681319,0.6252527472527473,0.4096483516483516,0.3952747252747253,-7.92694091796875,-2.7008056640625,-0.1068115234375,-5.4168701171875,-1.71661376953125,0.11444091796875
116811,12.26013,0.8399808999999999,0.8399658999999999,39546.74037960183,39546.75663419939,43.588867,41.759323,0.8767912087912089,-0.0431208791208791,0.4671428571428571,1.1427032967032968,-0.0862417582417582,0.5965054945054945,-5.0201416015625,-1.434326171875,0.0762939453125,-4.23431396484375,-0.030517578125,-0.6561279296875
116812,12.340105,0.8394342,0.83933375,39547.332957380495,39547.441870889365,43.60057,41.761646,0.309032967032967,-0.6036923076923078,-0.9414725274725276,0.7402417582417582,-0.424021978021978,-0.0215604395604395,-3.62396240234375,-1.10626220703125,-0.80108642578125,-4.638671875,-1.068115234375,0.31280517578125
116813,12.380106,0.8390858,0.83896586,39547.71075733488,39547.84084793776,43.59589,41.76397,0.7977362637362638,0.1078021978021978,0.3018461538461539,0.7186813186813188,-0.2946593406593407,-0.0574945054945055,-3.82232666015625,-1.13677978515625,-0.5645751953125,-3.1890869140625,-1.3275146484375,0.81634521484375
116814,12.420105,0.8388161999999999,0.8386611,39548.00319488426,39548.171467739085,43.60057,41.761646,0.8480439560439561,-0.1006153846153846,0.2802857142857143,0.7474285714285716,0.3521538461538461,0.6683736263736263,-3.23486328125,-2.49481201171875,-0.93841552734375,-2.838134765625,-1.38092041015625,-1.41143798828125
116815,12.460177,0.8384723,0.83840125,39548.37633678962,39548.45344363469,43.59823,41.76397,0.6899340659340659,-0.4815164835164835,0.5102637362637363,0.8983516483516484,0.229978021978022,0.3880879120879121,-2.593994140625,-1.82342529296875,-1.2969970703125,-1.41143798828125,-0.54168701171875,-1.10626220703125
116816,12.50014,0.8381966000000001,0.83812945,39548.6755691368,39548.74846278749,43.593548,41.766293,0.2946593406593407,-0.3162197802197802,0.4671428571428571,0.6827472527472528,-0.539010989010989,0.5965054945054945,-3.5247802734375,-2.17437744140625,-0.78582763671875,-3.77655029296875,-1.42669677734375,-0.87738037109375
116817,12.540104,0.8379255,0.8377919,39548.96988657221,39549.114956650454,43.59121,41.759323,0.4743296703296704,-0.2156043956043956,0.2587252747252747,0.7186813186813188,-0.1293626373626373,0.0,-2.08282470703125,-1.89971923828125,-0.34332275390625,-0.64849853515625,-2.044677734375,0.06103515625
116818,12.580087,0.8376573399999999,0.8374669,39549.26108808365,39549.467937384696,43.60291,41.777912,0.6252527472527473,-0.0215604395604395,-0.0862417582417582,1.2792527472527473,-0.6108791208791209,0.4815164835164835,-1.0833740234375,-1.2664794921875,-0.8544921875,-1.65557861328125,-1.6937255859375,-0.2593994140625
116819,12.620089,0.837309,0.8372374,39549.63947175294,39549.717262909784,43.59823,41.770943,0.6971208791208792,0.1221758241758241,0.4815164835164835,0.3665274725274725,0.1724835164835164,0.0,-1.556396484375,-1.79290771484375,-0.32806396484375,-1.33514404296875,-2.29644775390625,-0.95367431640625
116820,12.660088,0.8370272999999999,0.8368802000000001,39549.94556107589,39550.10543000802,43.60291,41.766293,0.5605714285714286,0.2443516483516483,0.0503076923076923,1.2433186813186814,-0.6827472527472528,0.0503076923076923,0.7476806640625,-0.152587890625,-0.46539306640625,-0.67138671875,-1.3885498046875,-2.15911865234375
116821,12.70012,0.8367319,0.8365844,39550.26662613939,39550.426975650975,43.60057,41.768616,0.5461978021978022,0.1581098901098901,0.6396263736263736,1.106769230769231,-0.8336703296703297,0.3880879120879121,-1.18255615234375,-3.631591796875,-1.50299072265625,1.0223388671875,-1.3275146484375,-1.6632080078125
116822,12.740087,0.8364425,0.8363682000000001,39550.58125892262,39550.66205135865,43.60759,41.768616,0.5965054945054945,-0.4958901098901099,0.4887032967032967,1.1714505494505496,0.0215604395604395,0.3593406593406594,2.0294189453125,-1.85394287109375,-1.70135498046875,1.16729736328125,-0.6103515625,-1.54876708984375
116823,12.780087,0.8362122999999999,0.8360634,39550.83159300656,39550.99354603401,43.60759,41.766293,0.7689890109890111,0.3809010989010989,0.0359340659340659,1.113956043956044,-0.4383956043956044,0.0718681318681318,0.640869140625,-2.5787353515625,-2.532958984375,0.79345703125,-2.86102294921875,-2.13623046875
116824,12.820045,0.8358533,0.8358921,39551.222103770255,39551.17989160512,43.60993,41.770943,0.6899340659340659,0.1078021978021978,0.6108791208791209,0.804923076923077,-0.0215604395604395,0.0,0.67138671875,-1.1444091796875,-1.79290771484375,0.78582763671875,-3.509521484375,-1.06048583984375
116825,12.860056,0.8355382000000001,0.8356006,39551.564973196146,39551.497065638076,43.60993,41.77559,0.5605714285714286,0.1365494505494505,0.1293626373626373,0.7761758241758242,0.229978021978022,0.2012307692307692,1.93023681640625,-1.6632080078125,-1.3275146484375,1.76239013671875,-2.22015380859375,-1.93023681640625
116826,12.900148,0.8353322,0.8353036,39551.78918435769,39551.82031624266,43.60993,41.770943,1.0061538461538462,0.6971208791208792,0.3162197802197802,0.5677582417582419,0.079054945054945,-0.0431208791208791,1.6326904296875,-1.5716552734375,-2.6702880859375,1.861572265625,-1.04522705078125,-2.23541259765625
116827,12.940089,0.83502016,0.8349565,39552.12889513327,39552.19821293593,43.605247,41.777912,0.6827472527472528,-0.1221758241758241,-0.5533846153846155,0.7905494505494507,0.079054945054945,-0.2371648351648352,3.5247802734375,-1.65557861328125,-1.15203857421875,1.30462646484375,-3.59344482421875,-1.31988525390625
116828,12.98009,0.83473086,0.8346954,39552.443941232304,39552.48256305824,43.61227,41.773266,0.6755604395604397,0.0431208791208791,0.3449670329670329,0.6755604395604397,0.2515384615384615,0.4887032967032967,3.448486328125,-1.52587890625,-1.86920166015625,1.220703125,-3.082275390625,-2.349853515625
116829,13.020097,0.8344642999999999,0.8344311999999999,39552.734301866265,39552.77036254382,43.61227,41.773266,0.6396263736263736,-0.4312087912087912,-0.804923076923077,0.6971208791208792,0.2730989010989011,0.5318241758241758,3.265380859375,-3.173828125,-2.84576416015625,2.46429443359375,-2.593994140625,-1.8768310546875
116830,13.06009,0.8342552000000001,0.8341472999999999,39552.96212457433,39553.07970397131,43.61695,41.77559,0.9414725274725276,0.3665274725274725,0.0503076923076923,0.5318241758241758,-0.424021978021978,0.0287472527472527,2.75421142578125,-3.56292724609375,-2.105712890625,2.44140625,-3.99017333984375,-1.89971923828125
116831,13.100128,0.8339069,0.8338274000000001,39553.3417138512,39553.42837367018,43.61227,41.777912,0.3665274725274725,0.0503076923076923,-0.2156043956043956,0.7186813186813188,0.1078021978021978,0.1293626373626373,2.5177001953125,-3.0364990234375,-2.90679931640625,3.082275390625,-2.54058837890625,-2.51007080078125
116832,13.140091,0.8336555,0.8335631,39553.61577796493,39553.71652479146,43.60759,41.777912,0.7689890109890111,-0.0287472527472527,0.2730989010989011,0.4527692307692308,-0.1581098901098901,-0.2946593406593407,5.5389404296875,-3.5400390625,-2.044677734375,5.37109375,-2.7923583984375,-0.885009765625
116833,13.180091,0.833357,0.8332989,39553.941275133955,39554.00464083454,43.60993,41.777912,0.7043076923076923,0.3521538461538461,0.1078021978021978,0.8121098901098901,0.9845934065934068,1.106769230769231,4.2877197265625,-2.9754638671875,-0.41961669921875,4.37164306640625,-1.57928466796875,-0.83160400390625
116834,13.220091,0.8331192,0.8330455,39554.200649993014,39554.28104873454,43.61227,41.770943,0.6899340659340659,0.1724835164835164,-0.1581098901098901,0.4815164835164835,-0.3952747252747253,-0.4527692307692308,4.791259765625,-1.7547607421875,-1.65557861328125,5.68389892578125,-1.2359619140625,-0.74005126953125
116835,13.260089,0.8328495,0.832766,39554.4948915981,39554.586005399906,43.61695,41.77559,0.3305934065934066,-0.1581098901098901,0.4958901098901099,0.7833626373626373,0.0574945054945055,0.2156043956043956,5.54656982421875,-2.46429443359375,-1.6937255859375,5.4931640625,-1.8157958984375,-0.98419189453125
116836,13.300124,0.8325830000000001,0.8325705999999999,39554.78571780993,39554.79925152127,43.61695,41.780235,0.3234065934065934,-0.194043956043956,0.2802857142857143,0.6899340659340659,0.0,-0.114989010989011,6.06536865234375,-1.70135498046875,-1.251220703125,5.5084228515625,-1.9989013671875,-0.43487548828125
116837,13.3401,0.8323602999999999,0.8322780000000001,39555.02880375956,39555.11865082533,43.61461,41.777912,0.8983516483516484,0.6108791208791209,0.2730989010989011,0.5965054945054945,-0.4096483516483516,-0.5893186813186814,6.95037841796875,-1.52587890625,-0.885009765625,5.13458251953125,-1.83868408203125,-1.3275146484375
116838,13.38009,0.8320906,0.83201375,39555.32326260316,39555.40718168984,43.61929,41.777912,0.2443516483516483,-0.3305934065934066,-0.3018461538461539,0.5605714285714286,-0.3809010989010989,-0.1724835164835164,7.07244873046875,-1.65557861328125,-1.48773193359375,5.36346435546875,-3.16619873046875,-0.23651123046875
116839,13.420089,0.8318393,0.8317747,39555.59770185926,39555.66826095858,43.61461,41.784885,0.574945054945055,-0.0215604395604395,-0.8624175824175825,0.6108791208791209,-0.0143736263736263,-0.4527692307692308,7.1258544921875,-1.983642578125,-1.1138916015625,5.82122802734375,-2.899169921875,-0.9765625
116840,13.540109,0.8310576,0.8309339,39556.45180881171,39556.58702644731,43.62397,41.784885,0.6755604395604397,-0.2227912087912087,-0.4455824175824175,0.5174505494505495,0.1078021978021978,0.3809010989010989,6.98089599609375,-2.4566650390625,-0.701904296875,7.74383544921875,-2.3651123046875,0.67901611328125
116841,13.580121,0.83077125,0.8306697000000001,39556.76484550248,39556.875880547326,43.62631,41.784885,0.5965054945054945,-0.0862417582417582,-0.2946593406593407,1.0277142857142858,-0.5677582417582419,1.085208791208791,7.1563720703125,-3.0059814453125,-1.51824951171875,7.51495361328125,-2.83050537109375,-0.213623046875
116842,13.620091,0.830538,0.8304371,39557.01989805522,39557.13024744188,43.63099,41.782562,0.7043076923076923,-0.2371648351648352,0.7761758241758242,0.1293626373626373,0.9270989010989013,0.2730989010989011,8.01849365234375,-2.4566650390625,-0.43487548828125,9.51385498046875,-2.79998779296875,-1.01470947265625
116843,13.660073,0.8303153,0.8301652,39557.26346859778,39557.42766520499,43.62865,41.784885,0.4455824175824175,-0.3593406593406594,-0.4527692307692308,0.8696043956043957,-0.309032967032967,0.3880879120879121,9.80377197265625,-3.1585693359375,-1.1444091796875,10.07843017578125,-2.06756591796875,-0.6561279296875
116844,13.700108,0.8299746000000001,0.8299491,39557.63620000662,39557.66410240938,43.621628,41.784885,0.4024615384615385,0.1509230769230769,0.8264835164835166,0.9845934065934068,-0.5461978021978022,0.2012307692307692,11.42120361328125,-2.49481201171875,-1.12152099609375,10.36834716796875,-2.7313232421875,-0.3814697265625
116845,13.740073,0.8297852,0.8297536999999999,39557.84346030656,39557.87793445164,43.62397,41.78953,0.9414725274725276,-0.2227912087912087,-0.6683736263736263,0.8911648351648351,-0.0646813186813186,0.3521538461538461,10.5743408203125,-2.63214111328125,-2.105712890625,10.38360595703125,-2.9144287109375,-1.6632080078125
116846,13.780075,0.8294868,0.829449,39558.17007696629,39558.21145811755,43.62631,41.78721,0.6036923076923078,-0.0287472527472527,-0.0718681318681318,0.9917802197802198,-0.2227912087912087,0.7761758241758242,11.94000244140625,-2.03704833984375,-0.9002685546875,11.1846923828125,-2.1514892578125,-1.251220703125
116847,13.820074,0.8293172,0.8292328,39558.35575672253,39558.44817013446,43.62631,41.78721,0.1724835164835164,-0.5821318681318681,-0.2946593406593407,0.7761758241758242,-0.3305934065934066,-0.0503076923076923,10.894775390625,-1.70135498046875,-0.2899169921875,12.47406005859375,-2.09808349609375,-1.41143798828125
116848,13.860033,0.8290233,0.829033,39558.677594165405,39558.666970632104,43.63099,41.78953,0.1724835164835164,-0.7330549450549451,-0.2802857142857143,-0.0143736263736263,0.3018461538461539,-0.6468131868131869,11.42120361328125,-3.54766845703125,-1.86920166015625,12.9241943359375,-1.9989013671875,-1.30462646484375
116849,13.900068,0.8287944500000001,0.82882445,39558.928262089656,39558.89539878125,43.638012,41.78721,0.3593406593406594,-0.0503076923076923,-0.194043956043956,0.1724835164835164,0.2371648351648352,-0.2227912087912087,12.39776611328125,-2.3651123046875,0.02288818359375,12.27569580078125,-2.777099609375,-1.28173828125
116850,13.940069,0.8285309,0.8285646000000001,39559.21700766026,39559.18008176944,43.63333,41.78953,0.424021978021978,0.3162197802197802,0.654,0.8767912087912089,-0.2156043956043956,0.6971208791208792,12.73345947265625,-3.0517578125,-1.30462646484375,13.3514404296875,-3.11279296875,-0.35858154296875
116851,13.980272,0.8283567999999999,0.8282927,39559.407792539954,39559.47804374334,43.63099,41.791855,0.5605714285714286,-0.114989010989011,-0.9702197802197802,0.1006153846153846,0.3162197802197802,-0.3018461538461539,15.14434814453125,-3.39508056640625,-1.28936767578125,13.87786865234375,-2.8839111328125,-0.14495849609375
116852,14.020034,0.8280902,0.8281475,39559.70000509567,39559.637193795614,43.63099,41.784885,0.2730989010989011,-0.2012307692307692,0.2084175824175824,0.8696043956043957,-0.2515384615384615,0.3162197802197802,14.85443115234375,-2.66265869140625,-1.1444091796875,14.39666748046875,-2.2735595703125,-1.5411376953125
116853,14.060033,0.8278402,0.8279247999999999,39559.97409208666,39559.881333547346,43.63333,41.79418,0.3665274725274725,-0.459956043956044,0.6755604395604397,0.0646813186813186,0.3809010989010989,-0.1221758241758241,16.76177978515625,-2.90679931640625,-1.25885009765625,15.67840576171875,-3.0670166015625,-0.93841552734375
116854,14.10007,0.8276144999999999,0.8276517999999999,39560.2215953938,39560.18068833084,43.63567,41.78953,0.5533846153846155,0.9845934065934068,0.3737142857142858,0.7546153846153847,0.0503076923076923,0.7618021978021978,17.1051025390625,-2.78472900390625,-0.9918212890625,16.88385009765625,-3.23486328125,-0.23651123046875
116855,14.140033,0.82741305,0.8274563,39560.4425522414,39560.395110576814,43.638012,41.79418,0.3880879120879121,0.1221758241758241,-0.0646813186813186,0.9486593406593408,-0.4527692307692308,0.5318241758241758,16.9525146484375,-3.82232666015625,-1.2664794921875,17.47894287109375,-2.54058837890625,-0.4425048828125
116856,14.180033,0.8271630499999999,0.8272249,39560.716820871596,39560.6489605645,43.64035,41.79883,0.5318241758241758,-0.0646813186813186,-0.2587252747252747,0.574945054945055,-0.2946593406593407,-0.3305934065934066,17.72308349609375,-4.52423095703125,-0.213623046875,16.4337158203125,-3.27301025390625,-0.95367431640625
116857,14.220033,0.82690414,0.8269639,39561.00093519574,39560.93535129661,43.638012,41.79418,0.3305934065934066,0.0862417582417582,1.0492747252747252,1.034901098901099,-0.7618021978021978,0.229978021978022,18.15032958984375,-4.02069091796875,-1.4190673828125,17.059326171875,-3.7994384765625,-1.0833740234375
116858,14.260034,0.8266694,0.8267116999999999,39561.25858888744,39561.2121554793,43.63567,41.79418,0.194043956043956,-0.424021978021978,-0.1221758241758241,0.3665274725274725,-0.194043956043956,0.0646813186813186,19.683837890625,-3.16619873046875,-0.28228759765625,18.25714111328125,-3.4637451171875,-1.129150390625
116859,14.30007,0.8265330000000001,0.8265205999999999,39561.40833052353,39561.421944391695,43.64035,41.80115,0.7761758241758242,0.4815164835164835,0.1078021978021978,1.034901098901099,-0.6180659340659341,0.1652967032967033,19.40155029296875,-3.97491455078125,-1.3885498046875,19.134521484375,-2.98309326171875,-0.20599365234375
116860,14.340069,0.8262785,0.8262924,39561.687777329294,39561.67251301308,43.64035,41.80115,0.2802857142857143,-0.2371648351648352,0.0287472527472527,0.4096483516483516,0.0071868131868131,-0.2730989010989011,18.4326171875,-3.79180908203125,-0.20599365234375,19.4244384765625,-3.265380859375,-1.03759765625
116861,14.380049,0.8260846000000001,0.8260599000000001,39561.90073073261,39561.92786076129,43.64035,41.79883,0.3737142857142858,0.1293626373626373,-0.194043956043956,0.5533846153846155,0.0071868131868131,-0.0215604395604395,19.88983154296875,-3.60870361328125,-1.77764892578125,19.87457275390625,-4.1046142578125,-0.335693359375
116862,14.420064,0.82588766,0.825836,39562.11706429246,39562.17381839838,43.64503,41.80115,0.6396263736263736,0.0143736263736263,-0.2012307692307692,0.4096483516483516,-0.3737142857142858,-0.1581098901098901,18.60809326171875,-4.05120849609375,-1.71661376953125,19.989013671875,-3.79180908203125,-0.4119873046875
116863,14.460103,0.8257211,0.8256275,39562.300058802444,39562.40290745174,43.64035,41.79883,0.5030769230769231,-0.0574945054945055,-0.0287472527472527,0.5174505494505495,0.0862417582417582,-0.0431208791208791,18.4326171875,-4.32586669921875,-2.60162353515625,20.3399658203125,-4.70733642578125,-0.14495849609375
116864,14.540051,0.8252666000000001,0.8251831,39562.79955651091,39562.8913476353,43.64971,41.79883,0.0934285714285714,-0.3952747252747253,0.3377802197802198,0.4383956043956044,-0.0359340659340659,0.0071868131868131,18.08929443359375,-4.44793701171875,-0.0457763671875,19.775390625,-3.51715087890625,-0.17547607421875
116865,14.58008,0.82499234,0.8249713000000001,39563.10107735131,39563.1242120329,43.65205,41.80115,0.229978021978022,-0.1365494505494505,-0.0646813186813186,0.3593406593406594,-0.0431208791208791,-0.3449670329670329,18.60809326171875,-3.753662109375,-1.85394287109375,19.3634033203125,-3.2196044921875,0.67138671875
116866,14.62005,0.8247742,0.8248238999999999,39563.34095794289,39563.28630014953,43.65205,41.8058,0.1509230769230769,-0.194043956043956,0.424021978021978,0.574945054945055,0.3377802197802198,0.0934285714285714,19.10400390625,-4.7149658203125,-2.12860107421875,16.73126220703125,-4.852294921875,-0.9918212890625
116867,14.660051,0.8246001,0.8245597,39563.53244621899,39563.57688585745,43.64971,41.8058,0.4024615384615385,-0.0934285714285714,0.1437362637362637,0.3377802197802198,0.0143736263736263,0.2874725274725275,17.23480224609375,-3.35693359375,-2.23541259765625,16.57867431640625,-3.47137451171875,-1.8463134765625
116868,14.700084,0.8243986,0.8243675,39563.7541119498,39563.78832828562,43.65205,41.8058,0.1581098901098901,-0.3521538461538461,0.3377802197802198,0.3809010989010989,-0.0718681318681318,0.194043956043956,17.0745849609375,-4.180908203125,-1.07574462890625,16.18194580078125,-4.06646728515625,-2.09808349609375
116869,14.740032,0.8241486,0.8241666400000001,39564.029192454225,39564.00934038335,43.654392,41.80115,0.1221758241758241,-0.0287472527472527,-0.4815164835164835,0.3809010989010989,0.114989010989011,-0.1724835164835164,14.892578125,-4.40216064453125,-0.95367431640625,16.38031005859375,-3.80706787109375,-0.58746337890625
116870,14.780016,0.8239547,0.8239832,39564.24259142094,39564.21122285575,43.654392,41.8058,0.309032967032967,-0.1581098901098901,0.1581098901098901,0.5318241758241758,0.1868571428571429,0.4887032967032967,16.04461669921875,-3.36456298828125,-2.2430419921875,16.1590576171875,-2.40325927734375,-0.2288818359375
116871,14.900028,0.8233444,0.8233903,39564.91452990867,39564.86398012256,43.65205,41.803474,0.3305934065934066,0.1006153846153846,-0.539010989010989,0.3305934065934066,0.0143736263736263,-0.1868571428571429,15.29693603515625,-3.4942626953125,-0.32806396484375,15.3350830078125,-3.753662109375,0.35858154296875
116872,14.940026,0.8231971,0.8232309,39565.07676718382,39565.039537543795,43.66375,41.808125,0.2874725274725275,-0.2084175824175824,-0.309032967032967,0.4815164835164835,0.2371648351648352,0.0646813186813186,14.22882080078125,-4.0740966796875,-1.15203857421875,14.74761962890625,-3.21197509765625,-1.5106201171875
116873,14.979983,0.8230064,0.8229666999999999,39565.2868404482,39565.330578538444,43.65907,41.808125,0.2515384615384615,-0.114989010989011,0.3018461538461539,0.2946593406593407,0.114989010989011,-0.0143736263736263,14.95361328125,-4.64630126953125,-0.80108642578125,14.36614990234375,-3.65447998046875,-0.80108642578125
116874,15.019965,0.82285336,0.8228542,39565.45545633174,39565.454530770134,43.66141,41.8058,0.3377802197802198,0.0503076923076923,0.2515384615384615,0.4096483516483516,-0.309032967032967,0.0862417582417582,15.29693603515625,-4.241943359375,-2.11334228515625,14.93072509765625,-4.24957275390625,-0.274658203125
116875,15.059971,0.8226927,0.8226424000000001,39565.63249507541,39565.68792874453,43.666092,41.808125,0.5318241758241758,0.0574945054945055,0.0646813186813186,0.4168351648351648,0.0862417582417582,0.574945054945055,15.533447265625,-3.7078857421875,-1.70135498046875,15.7470703125,-3.570556640625,-2.08282470703125
116876,15.099988,0.8224292999999999,0.8224349000000001,39565.922808394724,39565.916635422465,43.66141,41.81277,0.5174505494505495,0.1796703296703297,-0.3377802197802198,0.3593406593406594,0.5461978021978022,0.1652967032967033,16.25823974609375,-3.6773681640625,-1.53350830078125,14.85443115234375,-3.68499755859375,-1.861572265625
116877,15.139955,0.8222475,0.8221741,39566.1232280192,39566.20415568102,43.66141,41.808125,0.2012307692307692,-0.4887032967032967,-0.0718681318681318,0.8696043956043957,-0.3449670329670329,0.4743296703296704,16.4947509765625,-2.90679931640625,-0.946044921875,16.05224609375,-4.1046142578125,-1.800537109375
116878,15.179955,0.8220581,0.8220626600000001,39566.33206418722,39566.32703578379,43.66375,41.81277,0.229978021978022,0.309032967032967,0.539010989010989,0.2084175824175824,0.5605714285714286,0.0,16.6778564453125,-4.08172607421875,-1.03759765625,15.777587890625,-4.058837890625,-0.95367431640625
116879,15.219952,0.8218974,0.8218268,39566.509285723725,39566.587152967186,43.66843,41.815094,0.309032967032967,0.2730989010989011,0.4887032967032967,0.8121098901098901,-0.3377802197802198,0.7977362637362638,17.3492431640625,-4.6539306640625,-0.61798095703125,16.54815673828125,-4.150390625,-0.1983642578125
116880,15.259954,0.8217278,0.8216947,39566.69635270101,39566.73286529126,43.66843,41.815094,0.3377802197802198,-0.2946593406593407,-0.8983516483516484,0.2156043956043956,0.654,0.0215604395604395,17.14324951171875,-4.24957275390625,-0.11444091796875,16.31927490234375,-4.9285888671875,-0.8544921875
116881,15.299987,0.8215429,0.8215385000000001,39566.90033103719,39566.90518549041,43.67311,41.815094,0.3665274725274725,-0.0574945054945055,-0.539010989010989,0.6971208791208792,-0.6755604395604397,0.2371648351648352,18.2037353515625,-4.89044189453125,-0.6866455078125,16.845703125,-4.974365234375,-0.9765625
116882,15.339956,0.8212883999999999,0.82137805,39567.18115163746,39567.08222192279,43.67311,41.81277,0.2730989010989011,-0.4312087912087912,0.1509230769230769,0.7043076923076923,-0.539010989010989,0.5318241758241758,19.10400390625,-4.57763671875,-0.9918212890625,17.364501953125,-4.5013427734375,-0.5645751953125
116883,15.379966,0.8211717,0.8212143,39567.30994441094,39567.26292836486,43.67545,41.815094,0.4887032967032967,0.574945054945055,-0.0574945054945055,0.7330549450549451,-0.1078021978021978,0.4024615384615385,17.5018310546875,-2.96783447265625,0.32806396484375,17.66204833984375,-5.6915283203125,-0.2288818359375
116884,15.41997,0.82094016,0.8210024,39567.56552109791,39567.49681408845,43.66843,41.81742,0.3737142857142858,0.6899340659340659,0.7618021978021978,0.883978021978022,-0.2946593406593407,0.0574945054945055,17.69256591796875,-4.669189453125,-1.27410888671875,17.8070068359375,-4.23431396484375,-0.335693359375
116885,15.460086,0.8207961,0.8208136,39567.7245657456,39567.70524424711,43.67545,41.81277,0.3018461538461539,-0.1581098901098901,-0.0143736263736263,0.7043076923076923,-0.1293626373626373,0.6611868131868132,17.63916015625,-4.7149658203125,-0.8392333984375,17.76885986328125,-5.889892578125,-0.17547607421875
116886,15.500065,0.8206628,0.8205821000000001,39567.87175130786,39567.96086705333,43.67545,41.81742,0.1868571428571429,0.1078021978021978,0.4671428571428571,0.7977362637362638,-0.8552307692307692,0.3377802197802198,18.1427001953125,-4.852294921875,-0.1373291015625,18.157958984375,-6.1798095703125,-0.4425048828125
116887,15.540003,0.82046125,0.820487,39568.09433308602,39568.06589360229,43.67779,41.82439,0.079054945054945,-0.2946593406593407,-0.0718681318681318,0.1581098901098901,0.079054945054945,0.0143736263736263,19.8516845703125,-4.28009033203125,-0.48065185546875,18.463134765625,-4.974365234375,0.45013427734375
116888,15.580035,0.8203280000000001,0.82031016,39568.24151205903,39568.26121839046,43.67779,41.819744,0.2802857142857143,0.3665274725274725,0.4887032967032967,0.7977362637362638,-0.4743296703296704,0.4527692307692308,17.8985595703125,-5.66864013671875,0.335693359375,19.05059814453125,-4.38690185546875,0.11444091796875
116889,15.660003,0.81995234,0.8199749000000001,39568.65654502591,39568.63161616481,43.67779,41.826714,0.2802857142857143,-0.1293626373626373,-0.079054945054945,0.8911648351648351,-0.3737142857142858,0.5030769230769231,18.7225341796875,-4.9591064453125,0.2899169921875,18.25714111328125,-3.95965576171875,0.54168701171875
116890,15.700037,0.8197616400000001,0.8197500999999999,39568.86729123408,39568.88004558196,43.67311,41.822067,0.2227912087912087,0.1868571428571429,0.2443516483516483,0.2659120879120879,-0.0359340659340659,-0.2084175824175824,19.20318603515625,-5.65338134765625,-0.8087158203125,19.0277099609375,-5.279541015625,0.06866455078125
116891,15.780001,0.8195283,0.8195022,39569.12521372907,39569.15406707555,43.67779,41.82439,0.4383956043956044,0.4815164835164835,0.5030769230769231,0.3809010989010989,-0.2156043956043956,0.194043956043956,19.195556640625,-5.94329833984375,-0.54931640625,19.6533203125,-5.8441162109375,-0.45013427734375
116892,15.820001,0.8193223,0.8193341000000001,39569.35296536481,39569.3399181455,43.67779,41.82439,0.2227912087912087,-0.309032967032967,-0.4815164835164835,-0.1724835164835164,0.6324395604395605,0.1006153846153846,18.91326904296875,-5.85174560546875,1.8310546875,19.09637451171875,-5.859375,1.54876708984375
116893,15.859986,0.8191737,0.8191582000000001,39569.51728489641,39569.53442594147,43.682472,41.826714,0.2443516483516483,0.2227912087912087,-0.3305934065934066,0.309032967032967,0.2874725274725275,0.2587252747252747,19.66094970703125,-6.01959228515625,0.3509521484375,19.5770263671875,-5.1727294921875,0.6866455078125
116894,15.900023,0.8190557,0.8190217999999999,39569.64778462474,39569.68527846332,43.67779,41.82439,0.2012307692307692,0.0503076923076923,-0.079054945054945,0.3162197802197802,0.0934285714285714,-0.1868571428571429,19.18792724609375,-7.5836181640625,0.63323974609375,19.7601318359375,-5.37872314453125,1.19781494140625
116895,15.940021,0.8188797,0.8189157,39569.84245657618,39569.80263455746,43.687153,41.838333,0.2946593406593407,0.0287472527472527,-0.1437362637362637,0.3018461538461539,-0.1365494505494505,-0.3737142857142858,18.524169921875,-6.23321533203125,1.91497802734375,20.11871337890625,-5.62286376953125,0.823974609375
116896,15.979989,0.8186889999999999,0.8186985000000001,39570.05342630465,39570.04291559673,43.682472,41.831364,0.0718681318681318,-0.0862417582417582,-0.1365494505494505,0.2730989010989011,-0.194043956043956,0.0287472527472527,20.02716064453125,-6.67572021484375,1.74713134765625,18.9056396484375,-5.33294677734375,1.5106201171875
116897,16.019998,0.81861305,0.8185751,39570.13746019946,39570.17945185124,43.687153,41.83601,0.3737142857142858,0.2802857142857143,-0.3018461538461539,0.2515384615384615,-0.1652967032967033,-0.1293626373626373,18.524169921875,-6.7291259765625,1.3885498046875,19.59991455078125,-6.2255859375,1.52587890625
116898,16.059987,0.8184071,0.8183949,39570.36536268538,39570.37886455654,43.687153,41.83601,0.2084175824175824,-0.0574945054945055,0.2012307692307692,0.3880879120879121,0.3449670329670329,0.1078021978021978,18.7835693359375,-7.0343017578125,1.51824951171875,19.09637451171875,-5.71441650390625,1.7242431640625
116899,16.100034,0.8182750999999999,0.8182758,39570.5114571628,39570.51068236904,43.69417,41.842983,0.3018461538461539,0.114989010989011,0.1796703296703297,0.229978021978022,-0.1078021978021978,-0.2443516483516483,17.72308349609375,-7.1868896484375,2.51007080078125,18.4173583984375,-6.4697265625,1.24359130859375
116900,16.140005,0.8180799000000001,0.8181264,39570.7275348835,39570.6760576635,43.687153,41.833687,0.3305934065934066,0.3305934065934066,0.3234065934065934,0.1006153846153846,-0.1509230769230769,-0.0287472527472527,18.4478759765625,-6.65283203125,1.89208984375,18.1427001953125,-5.889892578125,2.64739990234375
116901,16.179989,0.818004,0.8179308599999999,39570.811564080854,39570.89254364417,43.69183,41.838333,0.2227912087912087,-0.2730989010989011,-0.2587252747252747,0.7546153846153847,-0.6180659340659341,0.5821318681318681,17.86041259765625,-5.63812255859375,2.03704833984375,17.364501953125,-6.29425048828125,2.105712890625
116902,16.220002,0.8178553999999999,0.8178828,39570.97609802379,39570.94575818195,43.69651,41.838333,0.0143736263736263,0.3377802197802198,0.5102637362637363,0.3449670329670329,0.2371648351648352,-0.0646813186813186,16.90673828125,-6.61468505859375,1.15203857421875,17.09747314453125,-6.00433349609375,0.95367431640625
116903,16.259989,0.8176889999999999,0.8176555499999999,39571.160369340134,39571.19741552663,43.69183,41.845306,0.1509230769230769,0.2515384615384615,0.4455824175824175,0.7114945054945055,-0.3593406593406594,0.4168351648351648,15.84625244140625,-7.42340087890625,2.655029296875,15.716552734375,-6.96563720703125,1.31988525390625
116904,16.300025,0.8175315,0.8175869,39571.33481277171,39571.273449884706,43.69183,41.84066,0.309032967032967,0.0646813186813186,0.0503076923076923,0.3521538461538461,-0.194043956043956,0.194043956043956,17.44842529296875,-6.58416748046875,2.03704833984375,16.65496826171875,-6.87408447265625,2.90679931640625
116905,16.340011,0.8173949,0.8174351,39571.48612987315,39571.4415966528,43.69651,41.842983,0.2084175824175824,-0.1078021978021978,-0.4312087912087912,-0.4096483516483516,0.5461978021978022,-0.2156043956043956,16.2200927734375,-5.86700439453125,2.01416015625,16.57867431640625,-5.950927734375,2.32696533203125
116906,16.37999,0.8172539999999999,0.8172833,39571.642231704776,39571.609768706105,43.698853,41.845306,0.1724835164835164,-0.3521538461538461,-0.4383956043956044,0.4887032967032967,-0.2443516483516483,0.0,15.13671875,-6.4849853515625,1.6326904296875,15.5487060546875,-5.0506591796875,3.10516357421875
116907,16.419985,0.81715586,0.8171425,39571.75097299604,39571.765776989356,43.69183,41.84066,0.1365494505494505,0.0359340659340659,0.4024615384615385,-0.2012307692307692,0.2659120879120879,-0.3234065934065934,15.37322998046875,-6.23321533203125,2.79998779296875,15.57159423828125,-6.00433349609375,2.40325927734375
116908,16.460166,0.8170557,0.8170748,39571.86196339582,39571.840797243865,43.69651,41.842983,0.0862417582417582,0.1796703296703297,0.3377802197802198,0.5821318681318681,-0.2371648351648352,0.3305934065934066,14.1143798828125,-8.17108154296875,2.44903564453125,14.7552490234375,-6.8359375,1.6937255859375
116909,16.500289,0.8168873,0.8168793,39572.048597489185,39572.05746449199,43.703533,41.84763,0.2946593406593407,0.1509230769230769,-0.5030769230769231,-0.0934285714285714,0.3234065934065934,-0.309032967032967,14.5263671875,-5.7220458984375,2.3040771484375,14.5416259765625,-5.462646484375,3.3721923828125
116910,16.539987,0.8167616400000001,0.8167788,39572.18788405833,39572.16886220518,43.70119,41.845306,0.1078021978021978,-0.3880879120879121,-0.3737142857142858,-0.1293626373626373,0.7258681318681319,-0.1868571428571429,14.24407958984375,-7.049560546875,3.662109375,14.22882080078125,-5.71441650390625,3.57818603515625
